#timestamp [ns], temperature [degC], w_RS_S_x [rad s^-1], w_RS_S_y [rad s^-1], w_RS_S_z [rad s^-1], a_RS_S_x [m s^-2], a_RS_S_y [m s^-2], a_RS_S_z [m s^-2]
0,21.9,0.0,0.0,0.0,0.75537,-0.95157,9.760950000000001
5050505,21.9,0.0,0.0,0.0,0.7651800000000001,-0.95157,9.78057
10101010,21.9,0.0,0.0,0.0,0.75537,-0.9319500000000001,9.770760000000001
15151515,21.9,0.0,0.0,0.0,0.75537,-0.94176,9.751140000000001
20202020,21.9,0.0,0.0,0.0,0.72594,-0.9319500000000001,9.78057
25252525,21.9,0.0,0.0,0.0,0.75537,-0.9221400000000001,9.78057
30303030,21.9,0.0,0.0,0.0,0.73575,-0.9319500000000001,9.78057
35353535,21.9,0.0,0.0,0.0,0.7651800000000001,-0.94176,9.79038
40404040,21.9,0.0,0.0,0.0,0.7749900000000001,-0.9319500000000001,9.78057
45454545,21.9,0.0,0.0,0.0,0.7651800000000001,-0.95157,9.760950000000001
50505050,21.9,0.0,0.0,0.0,0.72594,-0.9613800000000001,9.74133
55555555,21.9,0.0,0.0,0.0,0.7651800000000001,-0.94176,9.79038
60606060,21.9,0.0,0.0,0.0,0.75537,-0.95157,9.78057
65656565,21.9,0.0,0.0,0.0,0.73575,-0.9319500000000001,9.770760000000001
70707070,21.9,0.0,0.0,0.0,0.72594,-0.95157,9.74133
75757575,21.9,0.0,0.0,0.0,0.72594,-0.94176,9.760950000000001
80808080,21.9,0.0,0.0,0.0,0.73575,-0.9319500000000001,9.770760000000001
85858585,21.9,0.0,0.0,0.0,0.74556,-0.9221400000000001,9.81
90909090,21.9,0.0,0.0,0.0,0.73575,-0.9123300000000001,9.78057
95959595,21.9,0.0,0.0,0.0,0.7749900000000001,-0.94176,9.73152
101010100,21.9,0.0,0.0,0.0,0.74556,-0.9221400000000001,9.751140000000001
106060605,21.9,0.0,0.0,0.0,0.75537,-0.94176,9.751140000000001
111111110,21.9,0.0,0.0,0.0,0.73575,-0.95157,9.78057
116161615,21.9,0.0,0.0,0.0,0.72594,-0.94176,9.78057
121212120,21.9,0.0,0.0,0.0,0.74556,-0.94176,9.760950000000001
126262625,21.9,0.0,0.0,0.0,0.75537,-0.9123300000000001,9.78057
131313130,21.9,0.0,0.0,0.0,0.72594,-0.9319500000000001,9.760950000000001
136363635,21.9,0.0,0.0,0.0,0.75537,-0.94176,9.770760000000001
141414140,21.9,0.0,0.0,0.0,0.74556,-0.94176,9.751140000000001
146464645,21.9,0.0,0.0,0.0,0.75537,-0.9711900000000001,9.770760000000001
151515150,21.9,0.0,0.0,0.0,0.75537,-0.94176,9.760950000000001
156565655,21.9,0.0,0.0,0.0,0.73575,-0.9221400000000001,9.79038
161616160,21.9,0.0,0.0,0.0,0.75537,-0.90252,9.760950000000001
166666665,21.9,0.0,0.0,0.0,0.71613,-0.9319500000000001,9.770760000000001
171717170,21.9,0.0,0.0,0.0,0.74556,-0.94176,9.74133
176767675,21.9,0.0,0.0,0.0,0.72594,-0.95157,9.79038
181818180,21.9,0.0,0.0,0.0,0.73575,-0.9319500000000001,9.78057
186868685,21.9,0.0,0.0,0.0,0.74556,-0.9319500000000001,9.760950000000001
191919190,21.9,0.0,0.0,0.0,0.75537,-0.9319500000000001,9.751140000000001
196969695,21.9,0.0,0.0,0.0,0.7749900000000001,-0.9319500000000001,9.78057
202020200,21.9,0.0,0.0,0.0,0.75537,-0.94176,9.770760000000001
207070705,21.9,0.0,0.0,0.0,0.73575,-0.9319500000000001,9.760950000000001
212121210,21.9,0.0,0.0,0.0,0.71613,-0.9319500000000001,9.770760000000001
217171715,21.9,0.0,0.0,0.0,0.74556,-0.9123300000000001,9.74133
222222220,21.9,0.0,0.0,0.0,0.74556,-0.9319500000000001,9.770760000000001
227272725,21.9,0.0,0.0,0.0,0.7749900000000001,-0.94176,9.79038
232323230,21.9,0.0,0.0,0.0,0.74556,-0.9123300000000001,9.78057
237373735,21.9,0.0,0.0,0.0,0.7651800000000001,-0.94176,9.73152
242424240,21.9,0.0,0.0,0.0,0.74556,-0.9221400000000001,9.79038
247474745,21.9,0.0,0.0,0.0,0.73575,-0.9319500000000001,9.74133
252525250,21.9,0.0,0.0,0.0,0.7651800000000001,-0.9221400000000001,9.78057
257575755,21.9,0.0,0.0,0.0,0.74556,-0.94176,9.770760000000001
262626260,21.9,0.0,0.0,0.0,0.73575,-0.9319500000000001,9.73152
267676765,21.9,0.0,0.0,0.0,0.7651800000000001,-0.95157,9.770760000000001
272727270,21.9,0.0,0.0,0.0,0.74556,-0.9221400000000001,9.79038
277777775,21.9,0.0,0.0,0.0,0.72594,-0.94176,9.79038
282828280,21.9,0.0,0.0,0.0,0.72594,-0.94176,9.79038
287878785,21.9,0.0,0.0,0.0,0.73575,-0.94176,9.72171
292929290,21.9,0.0,0.0,0.0,0.75537,-0.95157,9.79038
297979795,21.9,0.0,0.0,0.0,0.73575,-0.94176,9.770760000000001
303030300,21.9,0.0,0.0,0.0,0.74556,-0.9319500000000001,9.79038
308080805,21.9,0.0,0.0,0.0,0.75537,-0.94176,9.770760000000001
313131310,21.9,0.0,0.0,0.0,0.75537,-0.9123300000000001,9.770760000000001
318181815,21.9,0.0,0.0,0.0,0.74556,-0.9221400000000001,9.760950000000001
323232320,21.9,0.0,0.0,0.0,0.73575,-0.95157,9.760950000000001
328282825,21.9,0.0,0.0,0.0,0.72594,-0.9319500000000001,9.80019
333333330,21.9,0.0,0.0,0.0,0.7651800000000001,-0.95157,9.770760000000001
338383835,21.9,0.0,0.0,0.0,0.73575,-0.94176,9.751140000000001
343434340,21.9,0.0,0.0,0.0,0.75537,-0.95157,9.760950000000001
348484845,21.9,0.0,0.0,0.0,0.72594,-0.9221400000000001,9.751140000000001
353535350,21.9,0.0,0.0,0.0,0.7651800000000001,-0.9221400000000001,9.770760000000001
358585855,21.9,0.0,0.0,0.0,0.73575,-0.94176,9.770760000000001
363636360,21.9,0.0,0.0,0.0,0.73575,-0.94176,9.751140000000001
368686865,21.9,0.0,0.0,0.0,0.74556,-0.94176,9.770760000000001
373737370,21.9,0.0,0.0,0.0,0.72594,-0.9319500000000001,9.770760000000001
378787875,21.9,0.0,0.0,0.0,0.74556,-0.9319500000000001,9.74133
383838380,21.9,0.0,0.0,0.0,0.74556,-0.94176,9.770760000000001
388888885,21.9,0.0,0.0,0.0,0.75537,-0.94176,9.751140000000001
393939390,21.9,0.0,0.0,0.0,0.73575,-0.95157,9.751140000000001
398989895,21.9,0.0,0.0,0.0,0.74556,-0.94176,9.80019
404040400,21.9,0.0,0.0,0.0,0.74556,-0.9319500000000001,9.78057
409090905,21.9,0.0,0.0,0.0,0.75537,-0.9319500000000001,9.79038
414141410,21.9,0.0,0.0,0.0,0.75537,-0.9123300000000001,9.760950000000001
419191915,21.9,0.0,0.0,0.0,0.7749900000000001,-0.9319500000000001,9.74133
424242420,21.9,0.0,0.0,0.0,0.75537,-0.9319500000000001,9.751140000000001
429292925,21.9,0.0,0.0,0.0,0.75537,-0.94176,9.751140000000001
434343430,21.9,0.0,0.0,0.0,0.75537,-0.94176,9.80019
439393935,21.9,0.0,0.0,0.0,0.74556,-0.9319500000000001,9.80019
444444440,21.9,0.0,0.0,0.0,0.73575,-0.9319500000000001,9.751140000000001
449494945,21.9,0.0,0.0,0.0,0.74556,-0.94176,9.760950000000001
454545450,21.9,0.0,0.0,0.0,0.75537,-0.95157,9.760950000000001
459595955,21.9,0.0,0.0,0.0,0.75537,-0.9319500000000001,9.79038
464646460,21.9,0.0,0.0,0.0,0.73575,-0.95157,9.80019
469696965,21.9,0.0,0.0,0.0,0.74556,-0.9221400000000001,9.760950000000001
474747470,21.9,0.0,0.0,0.0,0.74556,-0.9319500000000001,9.80019
479797975,21.9,0.0,0.0,0.0,0.75537,-0.9319500000000001,9.760950000000001
484848480,21.9,0.0,0.0,0.0,0.72594,-0.9221400000000001,9.770760000000001
489898985,21.9,0.0,0.0,0.0,0.75537,-0.94176,9.751140000000001
494949490,21.9,0.0,0.0,0.0,0.75537,-0.9613800000000001,9.770760000000001
499999995,21.9,0.0,0.0,0.0,0.7651800000000001,-0.9123300000000001,9.770760000000001
505050500,21.9,0.0,0.0,0.0,0.73575,-0.9319500000000001,9.770760000000001
510101005,21.9,0.0,0.0,0.0,0.7749900000000001,-0.9319500000000001,9.79038
515151510,21.9,0.0,0.0,0.0,0.75537,-0.9221400000000001,9.79038
520202015,21.9,0.0,0.0,0.0,0.73575,-0.9319500000000001,9.770760000000001
525252520,21.9,0.0,0.0,0.0,0.74556,-0.94176,9.760950000000001
530303025,21.9,0.0,0.0,0.0,0.73575,-0.94176,9.78057
535353530,21.9,0.0,0.0,0.0,0.75537,-0.94176,9.74133
540404035,21.9,0.0,0.0,0.0,0.74556,-0.94176,9.751140000000001
545454540,21.9,0.0,0.0,0.0,0.75537,-0.95157,9.770760000000001
550505045,21.9,0.0,0.0,0.0,0.74556,-0.9123300000000001,9.770760000000001
555555550,21.9,0.0,0.0,0.0,0.73575,-0.95157,9.81
560606055,21.9,0.0,0.0,0.0,0.7651800000000001,-0.9221400000000001,9.751140000000001
565656560,21.9,0.0,0.0,0.0,0.73575,-0.94176,9.80019
570707065,21.9,0.0,0.0,0.0,0.73575,-0.9319500000000001,9.770760000000001
575757570,21.9,0.0,0.0,0.0,0.74556,-0.95157,9.74133
580808075,21.9,0.0,0.0,0.0,0.75537,-0.9221400000000001,9.760950000000001
585858580,21.9,0.0,0.0,0.0,0.74556,-0.9319500000000001,9.751140000000001
590909085,21.9,0.0,0.0,0.0,0.73575,-0.9319500000000001,9.79038
595959590,21.9,0.0,0.0,0.0,0.74556,-0.9319500000000001,9.751140000000001
601010095,21.9,0.0,0.0,0.0,0.7651800000000001,-0.9319500000000001,9.770760000000001
606060600,21.9,0.0,0.0,0.0,0.71613,-0.9711900000000001,9.78057
611111105,21.9,0.0,0.0,0.0,0.73575,-0.9221400000000001,9.760950000000001
616161610,21.9,0.0,0.0,0.0,0.75537,-0.94176,9.78057
621212115,21.9,0.0,0.0,0.0,0.74556,-0.94176,9.78057
626262620,21.9,0.0,0.0,0.0,0.7651800000000001,-0.9319500000000001,9.760950000000001
631313125,21.9,0.0,0.0,0.0,0.73575,-0.9221400000000001,9.760950000000001
636363630,21.9,0.0,0.0,0.0,0.73575,-0.9319500000000001,9.78057
641414135,21.9,0.0,0.0,0.0,0.72594,-0.9319500000000001,9.751140000000001
646464640,21.9,0.0,0.0,0.0,0.74556,-0.9319500000000001,9.760950000000001
651515145,21.9,0.0,0.0,0.0,0.7651800000000001,-0.9613800000000001,9.770760000000001
656565650,21.9,0.0,0.0,0.0,0.74556,-0.95157,9.78057
661616155,21.9,0.0,0.0,0.0,0.7651800000000001,-0.9319500000000001,9.770760000000001
666666660,21.9,0.0,0.0,0.0,0.71613,-0.9221400000000001,9.80019
671717165,21.9,0.0,0.0,0.0,0.73575,-0.9123300000000001,9.760950000000001
676767670,21.9,0.0,0.0,0.0,0.73575,-0.94176,9.74133
681818175,21.9,0.0,0.0,0.0,0.7749900000000001,-0.94176,9.760950000000001
686868680,21.9,0.0,0.0,0.0,0.7749900000000001,-0.9319500000000001,9.79038
691919185,21.9,0.0,0.0,0.0,0.7749900000000001,-0.9221400000000001,9.78057
696969690,21.9,0.0,0.0,0.0,0.74556,-0.9221400000000001,9.760950000000001
702020195,21.9,0.0,0.0,0.0,0.7651800000000001,-0.95157,9.770760000000001
707070700,21.9,0.0,0.0,0.0,0.75537,-0.95157,9.760950000000001
712121205,21.9,0.0,0.0,0.0,0.73575,-0.9221400000000001,9.78057
717171710,21.9,0.0,0.0,0.0,0.71613,-0.9319500000000001,9.760950000000001
722222215,21.9,0.0,0.0,0.0,0.72594,-0.9221400000000001,9.751140000000001
727272720,21.9,0.0,0.0,0.0,0.74556,-0.9319500000000001,9.760950000000001
732323225,21.9,0.0,0.0,0.0,0.74556,-0.9319500000000001,9.79038
737373730,21.9,0.0,0.0,0.0,0.74556,-0.9319500000000001,9.80019
742424235,21.9,0.0,0.0,0.0,0.74556,-0.89271,9.73152
747474740,21.9,0.0,0.0,0.0,0.72594,-0.94176,9.73152
752525245,21.9,0.0,0.0,0.0,0.7651800000000001,-0.9221400000000001,9.751140000000001
757575750,21.9,0.0,0.0,0.0,0.75537,-0.9221400000000001,9.81
762626255,21.9,0.0,0.0,0.0,0.75537,-0.9123300000000001,9.79038
767676760,21.9,0.0,0.0,0.0,0.74556,-0.9319500000000001,9.770760000000001
772727265,21.9,0.0,0.0,0.0,0.74556,-0.9221400000000001,9.74133
777777770,21.9,0.0,0.0,0.0,0.72594,-0.95157,9.760950000000001
782828275,21.9,0.0,0.0,0.0,0.72594,-0.9319500000000001,9.80019
787878780,21.9,0.0,0.0,0.0,0.75537,-0.9319500000000001,9.770760000000001
792929285,21.9,0.0,0.0,0.0,0.75537,-0.94176,9.79038
797979790,21.9,0.0,0.0,0.0,0.73575,-0.90252,9.74133
803030295,21.9,0.0,0.0,0.0,0.7651800000000001,-0.9221400000000001,9.760950000000001
808080800,21.9,0.0,0.0,0.0,0.75537,-0.95157,9.78057
813131305,21.9,0.0,0.0,0.0,0.75537,-0.95157,9.751140000000001
818181810,21.9,0.0,0.0,0.0,0.73575,-0.9319500000000001,9.78057
823232315,21.9,0.0,0.0,0.0,0.73575,-0.9221400000000001,9.751140000000001
828282820,21.9,0.0,0.0,0.0,0.72594,-0.94176,9.760950000000001
833333325,21.9,0.0,0.0,0.0,0.75537,-0.9319500000000001,9.760950000000001
838383830,21.9,0.0,0.0,0.0,0.74556,-0.94176,9.770760000000001
843434335,21.9,0.0,0.0,0.0,0.7651800000000001,-0.94176,9.74133
848484840,21.9,0.0,0.0,0.0,0.73575,-0.9613800000000001,9.751140000000001
853535345,21.9,0.0,0.0,0.0,0.74556,-0.9123300000000001,9.751140000000001
858585850,21.9,0.0,0.0,0.0,0.73575,-0.9221400000000001,9.770760000000001
863636355,21.9,0.0,0.0,0.0,0.75537,-0.9221400000000001,9.760950000000001
868686860,21.9,0.0,0.0,0.0,0.74556,-0.9221400000000001,9.770760000000001
873737365,21.9,0.0,0.0,0.0,0.72594,-0.94176,9.79038
878787870,21.9,0.0,0.0,0.0,0.7651800000000001,-0.9319500000000001,9.74133
883838375,21.9,0.0,0.0,0.0,0.74556,-0.9319500000000001,9.770760000000001
888888880,21.9,0.0,0.0,0.0,0.73575,-0.9613800000000001,9.760950000000001
893939385,21.9,0.0,0.0,0.0,0.7651800000000001,-0.9221400000000001,9.78057
898989890,21.9,0.0,0.0,0.0,0.7651800000000001,-0.9319500000000001,9.74133
904040395,21.9,0.0,0.0,0.0,0.7749900000000001,-0.9123300000000001,9.760950000000001
909090900,21.9,0.0,0.0,0.0,0.73575,-0.9123300000000001,9.79038
914141405,21.9,0.0,0.0,0.0,0.74556,-0.94176,9.78057
919191910,21.9,0.0,0.0,0.0,0.71613,-0.9319500000000001,9.78057
924242415,21.9,0.0,0.0,0.0,0.75537,-0.95157,9.770760000000001
929292920,21.9,0.0,0.0,0.0,0.75537,-0.9319500000000001,9.79038
934343425,21.9,0.0,0.0,0.0,0.74556,-0.9319500000000001,9.78057
939393930,21.9,0.0,0.0,0.0,0.75537,-0.9319500000000001,9.751140000000001
944444435,21.9,0.0,0.0,0.0,0.75537,-0.9319500000000001,9.770760000000001
949494940,21.9,0.0,0.0,0.0,0.73575,-0.94176,9.770760000000001
954545445,21.9,0.0,0.0,0.0,0.74556,-0.9221400000000001,9.79038
959595950,21.9,0.0,0.0,0.0,0.74556,-0.9319500000000001,9.770760000000001
964646455,21.9,0.0,0.0,0.0,0.7651800000000001,-0.9221400000000001,9.751140000000001
969696960,21.9,0.0,0.0,0.0,0.74556,-0.9123300000000001,9.74133
974747465,21.9,0.0,0.0,0.0,0.74556,-0.9613800000000001,9.770760000000001
979797970,21.9,0.0,0.0,0.0,0.74556,-0.9319500000000001,9.80019
984848475,21.9,0.0,0.0,0.0,0.7651800000000001,-0.9319500000000001,9.80019
989898980,21.9,0.0,0.0,0.0,0.74556,-0.9221400000000001,9.72171
994949485,21.9,0.0,0.0,0.0,0.75537,-0.9319500000000001,9.770760000000001
999999990,21.9,0.0,0.0,0.0,0.75537,-0.95157,9.760950000000001
1005050495,21.9,0.0,0.0,0.0,0.73575,-0.94176,9.78057
1010101000,21.9,0.0,0.0,0.0,0.75537,-0.94176,9.79038
1015151505,21.9,0.0,0.0,0.0,0.74556,-0.94176,9.751140000000001
1020202010,21.9,0.0,0.0,0.0,0.72594,-0.9319500000000001,9.760950000000001
1025252515,21.9,0.0,0.0,0.0,0.74556,-0.9221400000000001,9.760950000000001
1030303020,21.9,0.0,0.0,0.0,0.73575,-0.95157,9.770760000000001
1035353525,21.9,0.0,0.0,0.0,0.75537,-0.94176,9.79038
1040404030,21.9,0.0,0.0,0.0,0.74556,-0.9221400000000001,9.770760000000001
1045454535,21.9,0.0,0.0,0.0,0.73575,-0.94176,9.770760000000001
1050505040,21.9,0.0,0.0,0.0,0.73575,-0.94176,9.73152
1055555545,21.9,0.0,0.0,0.0,0.75537,-0.9221400000000001,9.78057
1060606050,21.9,0.0,0.0,0.0,0.75537,-0.9123300000000001,9.770760000000001
1065656555,21.9,0.0,0.0,0.0,0.73575,-0.9221400000000001,9.79038
1070707060,21.9,0.0,0.0,0.0,0.74556,-0.9613800000000001,9.770760000000001
1075757565,21.9,0.0,0.0,0.0,0.71613,-0.9319500000000001,9.770760000000001
1080808070,21.9,0.0,0.0,0.0,0.75537,-0.95157,9.770760000000001
1085858575,21.9,0.0,0.0,0.0,0.75537,-0.9319500000000001,9.78057
1090909080,21.9,0.0,0.0,0.0,0.73575,-0.95157,9.79038
1095959585,21.9,0.0,0.0,0.0,0.75537,-0.9319500000000001,9.74133
1101010090,21.9,0.0,0.0,0.0,0.74556,-0.9221400000000001,9.770760000000001
1106060595,21.9,0.0,0.0,0.0,0.75537,-0.94176,9.751140000000001
1111111100,21.9,0.0,0.0,0.0,0.7651800000000001,-0.95157,9.78057
1116161605,21.9,0.0,0.0,0.0,0.7651800000000001,-0.95157,9.79038
1121212110,21.9,0.0,0.0,0.0,0.73575,-0.94176,9.78057
1126262615,21.9,0.0,0.0,0.0,0.75537,-0.9221400000000001,9.73152
1131313120,21.9,0.0,0.0,0.0,0.74556,-0.9613800000000001,9.74133
1136363625,21.9,0.0,0.0,0.0,0.73575,-0.94176,9.751140000000001
1141414130,21.9,0.0,0.0,0.0,0.74556,-0.9221400000000001,9.81
1146464635,21.9,0.0,0.0,0.0,0.72594,-0.9123300000000001,9.81
1151515140,21.9,0.0,0.0,0.0,0.74556,-0.9319500000000001,9.73152
1156565645,21.9,0.0,0.0,0.0,0.75537,-0.95157,9.73152
1161616150,21.9,0.0,0.0,0.0,0.7749900000000001,-0.9711900000000001,9.760950000000001
1166666655,21.9,0.0,0.0,0.0,0.7651800000000001,-0.94176,9.80019
1171717160,21.9,0.0,0.0,0.0,0.75537,-0.9123300000000001,9.79038
1176767665,21.9,0.0,0.0,0.0,0.74556,-0.95157,9.73152
1181818170,21.9,0.0,0.0,0.0,0.72594,-0.9319500000000001,9.770760000000001
1186868675,21.9,0.0,0.0,0.0,0.71613,-0.94176,9.74133
1191919180,21.9,0.0,0.0,0.0,0.74556,-0.9319500000000001,9.79038
1196969685,21.9,0.0,0.0,0.0,0.7749900000000001,-0.9221400000000001,9.770760000000001
1202020190,21.9,0.0,0.0,0.0,0.74556,-0.9221400000000001,9.751140000000001
1207070695,21.9,0.0,0.0,0.0,0.75537,-0.9319500000000001,9.751140000000001
1212121200,21.9,0.0,0.0,0.0,0.75537,-0.95157,9.760950000000001
1217171705,21.9,0.0,0.0,0.0,0.75537,-0.95157,9.79038
1222222210,21.9,0.0,0.0,0.0,0.72594,-0.9221400000000001,9.770760000000001
1227272715,21.9,0.0,0.0,0.0,0.74556,-0.9319500000000001,9.78057
1232323220,21.9,0.0,0.0,0.0,0.72594,-0.9221400000000001,9.72171
1237373725,21.9,0.0,0.0,0.0,0.72594,-0.94176,9.78057
1242424230,21.9,0.0,0.0,0.0,0.7651800000000001,-0.9319500000000001,9.81
1247474735,21.9,0.0,0.0,0.0,0.73575,-0.9221400000000001,9.78057
1252525240,21.9,0.0,0.0,0.0,0.7749900000000001,-0.9319500000000001,9.760950000000001
1257575745,21.9,0.0,0.0,0.0,0.74556,-0.95157,9.74133
1262626250,21.9,0.0,0.0,0.0,0.74556,-0.94176,9.78057
1267676755,21.9,0.0,0.0,0.0,0.72594,-0.9319500000000001,9.79038
1272727260,21.9,0.0,0.0,0.0,0.72594,-0.95157,9.79038
1277777765,21.9,0.0,0.0,0.0,0.75537,-0.9221400000000001,9.78057
1282828270,21.9,0.0,0.0,0.0,0.72594,-0.94176,9.74133
1287878775,21.9,0.0,0.0,0.0,0.75537,-0.94176,9.74133
1292929280,21.9,0.0,0.0,0.0,0.73575,-0.9613800000000001,9.819809999999999
1297979785,21.9,0.0,0.0,0.0,0.7651800000000001,-0.9221400000000001,9.78057
1303030290,21.9,0.0,0.0,0.0,0.7651800000000001,-0.9319500000000001,9.78057
1308080795,21.9,0.0,0.0,0.0,0.7651800000000001,-0.9319500000000001,9.79038
1313131300,21.9,0.0,0.0,0.0,0.73575,-0.94176,9.751140000000001
1318181805,21.9,0.0,0.0,0.0,0.7848,-0.94176,9.79038
1323232310,21.9,0.0,0.0,0.0,0.74556,-0.9319500000000001,9.760950000000001
1328282815,21.9,0.0,0.0,0.0,0.71613,-0.94176,9.79038
1333333320,21.9,0.0,0.0,0.0,0.74556,-0.9221400000000001,9.770760000000001
1338383825,21.9,0.0,0.0,0.0,0.74556,-0.9319500000000001,9.751140000000001
1343434330,21.9,0.0,0.0,0.0,0.73575,-0.9319500000000001,9.79038
1348484835,21.9,0.0,0.0,0.0,0.72594,-0.9123300000000001,9.78057
1353535340,21.9,0.0,0.0,0.0,0.74556,-0.94176,9.760950000000001
1358585845,21.9,0.0,0.0,0.0,0.75537,-0.95157,9.751140000000001
1363636350,21.9,0.0,0.0,0.0,0.74556,-0.9613800000000001,9.79038
1368686855,21.9,0.0,0.0,0.0,0.75537,-0.9613800000000001,9.760950000000001
1373737360,21.9,0.0,0.0,0.0,0.73575,-0.9221400000000001,9.78057
1378787865,21.9,0.0,0.0,0.0,0.75537,-0.94176,9.770760000000001
1383838370,21.9,0.0,0.0,0.0,0.73575,-0.94176,9.751140000000001
1388888875,21.9,0.0,0.0,0.0,0.75537,-0.9123300000000001,9.751140000000001
1393939380,21.9,0.0,0.0,0.0,0.72594,-0.95157,9.770760000000001
1398989885,21.9,0.0,0.0,0.0,0.75537,-0.9319500000000001,9.79038
1404040390,21.9,0.0,0.0,0.0,0.74556,-0.9319500000000001,9.751140000000001
1409090895,21.9,0.0,0.0,0.0,0.7651800000000001,-0.94176,9.751140000000001
1414141400,21.9,0.0,0.0,0.0,0.75537,-0.9319500000000001,9.78057
1419191905,21.9,0.0,0.0,0.0,0.74556,-0.94176,9.78057
1424242410,21.9,0.0,0.0,0.0,0.7651800000000001,-0.94176,9.760950000000001
1429292915,21.9,0.0,0.0,0.0,0.70632,-0.94176,9.760950000000001
1434343420,21.9,0.0,0.0,0.0,0.73575,-0.94176,9.760950000000001
1439393925,21.9,0.0,0.0,0.0,0.7651800000000001,-0.94176,9.78057
1444444430,21.9,0.0,0.0,0.0,0.73575,-0.9319500000000001,9.79038
1449494935,21.9,0.0,0.0,0.0,0.73575,-0.94176,9.760950000000001
1454545440,21.9,0.0,0.0,0.0,0.73575,-0.95157,9.79038
1459595945,21.9,0.0,0.0,0.0,0.74556,-0.95157,9.74133
1464646450,21.9,0.0,0.0,0.0,0.71613,-0.94176,9.80019
1469696955,21.9,0.0,0.0,0.0,0.73575,-0.8829,9.770760000000001
1474747460,21.9,0.0,0.0,0.0,0.7651800000000001,-0.9319500000000001,9.751140000000001
1479797965,21.9,0.0,0.0,0.0,0.7651800000000001,-0.9123300000000001,9.770760000000001
1484848470,21.9,0.0,0.0,0.0,0.75537,-0.9319500000000001,9.770760000000001
1489898975,21.9,0.0,0.0,0.0,0.7651800000000001,-0.9613800000000001,9.770760000000001
1494949480,21.9,0.0,0.0,0.0,0.7848,-0.9123300000000001,9.770760000000001
1499999985,21.9,0.0,0.0,0.0,0.73575,-0.9221400000000001,9.751140000000001
1505050490,21.9,0.0,0.0,0.0,0.74556,-0.9319500000000001,9.72171
1510100995,21.9,0.0,0.0,0.0,0.74556,-0.94176,9.79038
1515151500,21.9,0.0,0.0,0.0,0.74556,-0.94176,9.770760000000001
1520202005,21.9,0.0,0.0,0.0,0.74556,-0.9221400000000001,9.79038
1525252510,21.9,0.0,0.0,0.0,0.75537,-0.9319500000000001,9.73152
1530303015,21.9,0.0,0.0,0.0,0.74556,-0.95157,9.760950000000001
1535353520,21.9,0.0,0.0,0.0,0.73575,-0.94176,9.73152
1540404025,21.9,0.0,0.0,0.0,0.75537,-0.9319500000000001,9.80019
1545454530,21.9,0.0,0.0,0.0,0.73575,-0.9221400000000001,9.79038
1550505035,21.9,0.0,0.0,0.0,0.74556,-0.9319500000000001,9.78057
1555555540,21.9,0.0,0.0,0.0,0.72594,-0.95157,9.74133
1560606045,21.9,0.0,0.0,0.0,0.75537,-0.94176,9.751140000000001
1565656550,21.9,0.0,0.0,0.0,0.7651800000000001,-0.94176,9.80019
1570707055,21.9,0.0,0.0,0.0,0.75537,-0.9221400000000001,9.79038
1575757560,21.9,0.0,0.0,0.0,0.7651800000000001,-0.9123300000000001,9.760950000000001
1580808065,21.9,0.0,0.0,0.0,0.72594,-0.94176,9.751140000000001
1585858570,21.9,0.0,0.0,0.0,0.7651800000000001,-0.94176,9.74133
1590909075,21.9,0.0,0.0,0.0,0.74556,-0.95157,9.79038
1595959580,21.9,0.0,0.0,0.0,0.7651800000000001,-0.9221400000000001,9.80019
1601010085,21.9,0.0,0.0,0.0,0.73575,-0.9319500000000001,9.770760000000001
1606060590,21.9,0.0,0.0,0.0,0.73575,-0.9319500000000001,9.73152
1611111095,21.9,0.0,0.0,0.0,0.75537,-0.95157,9.770760000000001
1616161600,21.9,0.0,0.0,0.0,0.73575,-0.9319500000000001,9.80019
1621212105,21.9,0.0,0.0,0.0,0.74556,-0.9613800000000001,9.80019
1626262610,21.9,0.0,0.0,0.0,0.7651800000000001,-0.94176,9.760950000000001
1631313115,21.9,0.0,0.0,0.0,0.75537,-0.9319500000000001,9.770760000000001
1636363620,21.9,0.0,0.0,0.0,0.75537,-0.94176,9.751140000000001
1641414125,21.9,0.0,0.0,0.0,0.73575,-0.94176,9.74133
1646464630,21.9,0.0,0.0,0.0,0.73575,-0.94176,9.79038
1651515135,21.9,0.0,0.0,0.0,0.74556,-0.94176,9.770760000000001
1656565640,21.9,0.0,0.0,0.0,0.73575,-0.9711900000000001,9.78057
1661616145,21.9,0.0,0.0,0.0,0.74556,-0.94176,9.79038
1666666650,21.9,0.0,0.0,0.0,0.74556,-0.89271,9.751140000000001
1671717155,21.9,0.0,0.0,0.0,0.75537,-0.9319500000000001,9.73152
1676767660,21.9,0.0,0.0,0.0,0.79461,-0.9810000000000001,9.770760000000001
1681818165,21.9,0.0,0.0,0.0,0.7848,-0.94176,9.87867
1686868670,21.9,0.0,0.0,0.0,0.7651800000000001,-0.9221400000000001,9.770760000000001
1691919175,21.9,0.0,0.0,0.0,0.7749900000000001,-0.94176,9.70209
1696969680,21.9,0.0,0.0,0.0,0.73575,-0.9810000000000001,9.819809999999999
1702020185,21.9,0.0,0.0,0.0,0.72594,-0.9711900000000001,9.82962
1707070690,21.9,0.0,0.0,0.0,0.7651800000000001,-0.9908100000000001,9.92772
1712121195,21.9,0.01918116847941768,-0.10012953918691468,0.0,0.35316,-0.70632,9.68247
1717171700,21.9,-0.001064650843716541,-0.12995721610349775,0.005323254218582705,1.78542,-0.79461,9.24102
1722222205,21.9,0.015987215948268057,-0.19708257913519966,0.007452555906015787,1.26549,-1.2753,10.22202
1727272710,21.9,-0.03515093113516579,-0.10332349171806432,-0.006387905062299246,3.2373000000000003,-0.94176,10.182780000000001
1732323215,21.9,0.05965535383316618,0.011711159280881954,0.005323254218582705,2.31516,-0.8829,10.23183
1737373720,21.9,0.0,0.04794419455228423,-0.01064650843716541,2.4525,-0.8142300000000001,8.779950000000001
1742424225,21.9,-0.01918116847941768,0.29934142000954744,-0.004258603374866164,2.06991,-1.4715,9.53532
1747474730,21.9,-0.008517206749732328,0.18961256993666398,-0.013840460968315033,-0.009810000000000001,-1.54017,10.006200000000002
1752525235,21.9,0.022375121010567305,0.39201840329044635,-0.012775810124598492,0.73575,-1.19682,10.32993
1757575740,21.9,0.09054768159346581,0.15978489302008084,-0.004258603374866164,-2.08953,-0.13734000000000002,10.712520000000001
1762626245,21.9,0.06178465552059926,0.13634512116579703,-0.001064650843716541,-0.5886,-0.7651800000000001,8.84862
1767676750,21.9,0.02982767691658309,0.06284930636431581,-0.005323254218582705,-2.48193,-0.74556,9.44703
1772727255,21.9,-0.024504422698000388,-0.17151350559348277,0.003193952531149623,-0.6670800000000001,-0.87309,9.358740000000001
1777777760,21.9,-0.002129301687433082,-0.1757721089683489,0.004258603374866164,-0.75537,-0.89271,10.35936
1782828265,21.9,0.013840460968315033,-0.39201840329044635,0.008517206749732328,0.02943,-0.75537,10.31031
1787878770,21.9,-0.024504422698000388,-0.3344923511447132,0.01064650843716541,1.9227600000000002,-1.00062,9.30969
1792929275,21.9,0.003193952531149623,-0.32597514439498093,0.007452555906015787,2.39364,-1.3243500000000001,9.760950000000001
1797979780,21.9,0.008517206749732328,-0.19708257913519966,0.004258603374866164,4.03191,-1.00062,9.496080000000001
1803030285,21.9,0.02982767691658309,0.023439771854283843,-0.001064650843716541,3.63951,-0.9123300000000001,10.15335
1808080790,21.9,0.05539675045830002,0.10438814256178083,-0.003193952531149623,3.1980600000000003,-0.79461,9.44703
1813131295,21.9,0.007452555906015787,0.31531118266529556,-0.008517206749732328,2.43288,-0.87309,9.53532
1818181800,21.9,0.01811651763570114,0.2982767691658309,-0.008517206749732328,0.69651,-1.02024,9.89829
1823232305,21.9,0.012775810124598492,0.2950828166346813,-0.012775810124598492,0.0,-1.03005,10.12392
1828282810,21.9,0.01918116847941768,0.23329816111408203,-0.006387905062299246,-0.85347,-0.9123300000000001,10.1043
1833333315,21.9,0.028763026072866547,0.09693558665576507,-0.007452555906015787,-1.2360600000000002,-0.89271,9.623610000000001
1838383820,21.9,0.013840460968315033,0.0170518667919846,0.0,-0.95157,-0.8829,9.64323
1843434325,21.9,0.03089232776029963,-0.07990117315630041,0.004258603374866164,-0.9810000000000001,-0.95157,9.47646
1848484830,21.9,0.002129301687433082,-0.1672549022186166,0.004258603374866164,-0.23544,-0.86328,10.06506
1853535335,21.9,0.03089232776029963,-0.19600047499896323,0.008517206749732328,0.3924,-0.85347,10.182780000000001
1858585840,21.9,0.012775810124598492,-0.24075071702009782,0.008517206749732328,0.74556,-0.85347,9.80019
1863636345,21.9,0.001064650843716541,-0.16831955306233315,0.004258603374866164,1.9816200000000002,-1.04967,9.58437
1868686850,21.9,0.015987215948268057,-0.15126768627034853,0.0,1.83447,-1.1281500000000002,9.96696
1873737355,21.9,0.012775810124598492,-0.06710790973918197,0.003193952531149623,2.88414,-1.06929,9.78057
1878787860,21.9,0.03834488366631542,0.02982767691658309,-0.002129301687433082,2.11896,-1.0987200000000001,10.01601
1883838365,21.9,0.04260348704118158,0.06923721142661506,-0.003193952531149623,2.31516,-0.75537,9.68247
1888888870,21.9,0.054332099614583476,0.17683675981206545,-0.005323254218582705,1.54017,-0.84366,9.74133
1893939375,21.9,0.04581489286485115,0.14062117783318315,-0.006387905062299246,0.7651800000000001,-0.84366,9.94734
1898989880,21.9,0.013840460968315033,0.18109536318693162,-0.005323254218582705,0.40221,-1.03005,9.86886
1904040385,21.9,0.02663372438543347,0.12144000935376545,-0.007452555906015787,-0.22563,-1.03986,10.1043
1909090890,21.9,0.024504422698000388,0.09054768159346581,-0.004258603374866164,-0.1962,-0.95157,9.84924
1914141395,21.9,0.05113814708343386,0.05965535383316618,-0.002129301687433082,-0.45126,-0.9908100000000001,9.67266
1919191900,21.9,0.05113814708343386,-0.013840460968315033,0.0,-0.5493600000000001,-0.7749900000000001,9.81
1924242405,21.9,0.044732788728614664,-0.07349581480148122,0.001064650843716541,-0.1962,-0.84366,9.67266
1929292910,21.9,0.03515093113516579,-0.15765559133264778,0.002129301687433082,-0.019620000000000002,-0.89271,9.73152
1934343415,21.9,0.022375121010567305,-0.19387117331153014,0.004258603374866164,0.94176,-0.9319500000000001,9.78057
1939393920,21.9,0.0404741853537485,-0.19387117331153014,0.005323254218582705,1.49112,-0.86328,10.25145
1944444425,21.9,0.04153883619746504,-0.1800307123432151,0.002129301687433082,2.11896,-0.8240400000000001,10.03563
1949494930,21.9,0.03728023282259888,-0.05326744877086694,0.002129301687433082,2.6683200000000005,-0.8829,9.42741
1954545435,21.9,0.04153883619746504,0.033021629447732716,-0.004258603374866164,2.30535,-0.9123300000000001,9.25083
1959595940,21.9,0.015987215948268057,0.16617279808238014,-0.004258603374866164,2.17782,-1.19682,9.39798
1964646445,21.9,0.0404741853537485,0.2279749068954993,-0.005323254218582705,1.0791000000000002,-1.06929,10.46727
1969696950,21.9,0.06284930636431581,0.21411699263466438,-0.006387905062299246,0.019620000000000002,-0.80442,10.48689
1974747455,21.9,0.0756251164889143,0.14487978120804929,-0.006387905062299246,-0.41202000000000005,-0.60822,9.73152
1979797960,21.9,0.06284930636431581,0.039409534510031964,-0.002129301687433082,-0.69651,-0.59841,9.14292
1984848465,21.9,0.02982767691658309,-0.039409534510031964,0.0,-0.2943,-0.94176,9.29007
1989898970,21.9,0.01918116847941768,-0.10119419003063122,0.001064650843716541,-0.07848000000000001,-0.9613800000000001,10.22202
1994949475,21.9,0.03621558197888234,-0.15126768627034853,0.001064650843716541,0.46107000000000004,-0.86328,10.35936
1999999980,21.9,0.04794419455228423,-0.14594443205176583,0.003193952531149623,1.0987200000000001,-0.80442,10.025820000000001
2005050485,21.9,0.03089232776029963,-0.12144000935376545,0.001064650843716541,1.3047300000000002,-0.9613800000000001,9.40779
2010100990,21.9,0.023439771854283843,-0.04153883619746504,0.0,1.8442800000000001,-1.21644,9.20178
2015151495,21.9,0.04794419455228423,0.0170518667919846,-0.002129301687433082,1.5696,-1.10853,10.17297
2020202000,21.9,0.07349581480148122,0.04366813788489812,-0.001064650843716541,1.50093,-0.84366,10.34955
2025252505,21.9,0.08628907821859966,0.06710790973918197,-0.003193952531149623,1.10853,-0.6278400000000001,10.12392
2030303010,21.9,0.06604325889546543,0.044732788728614664,-0.004258603374866164,0.74556,-0.6768900000000001,9.59418
2035353515,21.9,0.03834488366631542,0.05220279792715039,-0.002129301687433082,0.8829,-1.00062,9.30969
2040404020,21.9,0.031956978604016174,0.05646140130201656,-0.005323254218582705,0.51012,-1.03986,10.1043
2045454525,21.9,0.05113814708343386,0.046879543708567686,-0.001064650843716541,0.46107000000000004,-0.9810000000000001,10.27107
2050505030,21.9,0.07030186227033158,0.020245819323134222,0.0,0.26487,-0.89271,9.937529999999999
2055555535,21.9,0.06178465552059926,-0.015987215948268057,0.0,0.27468000000000004,-0.8829,9.623610000000001
2060606040,21.9,0.06391395720803235,-0.04366813788489812,0.0,0.50031,-0.8829,9.65304
2065656545,21.9,0.07136651311404815,-0.07030186227033158,0.002129301687433082,0.69651,-0.8142300000000001,9.92772
2070707050,21.9,0.07990117315630041,-0.05220279792715039,0.0,1.10853,-0.6670800000000001,10.01601
2075757555,21.9,0.07030186227033158,-0.0404741853537485,-0.001064650843716541,1.08891,-0.6867000000000001,9.99639
2080808060,21.9,0.05220279792715039,-0.00958185759344887,-0.002129301687433082,1.2753,-0.87309,9.4176
2085858565,21.9,0.039409534510031964,0.03408628029144926,-0.003193952531149623,1.1183400000000001,-1.04967,9.66285
2090909070,21.9,0.05007349623971732,0.02982767691658309,-0.002129301687433082,0.90252,-1.1281500000000002,9.94734
2095959575,21.9,0.07136651311404815,0.03515093113516579,-0.001064650843716541,0.9123300000000001,-0.90252,10.045440000000001
2101010080,21.9,0.10866419922916695,0.022375121010567305,0.0,0.56898,-0.5591700000000001,10.05525
2106060585,21.9,0.09587093581204853,-0.013840460968315033,-0.002129301687433082,0.69651,-0.52974,9.38817
2111111090,21.9,0.06710790973918197,0.013840460968315033,-0.001064650843716541,0.7651800000000001,-0.65727,9.64323
2116161595,21.9,0.046879543708567686,-0.007452555906015787,-0.001064650843716541,0.6278400000000001,-0.9221400000000001,9.89829
2121212100,21.9,0.03728023282259888,0.014905111812031574,0.0,0.85347,-1.06929,10.09449
2126262605,21.9,0.05220279792715039,-0.005323254218582705,-0.002129301687433082,0.48069000000000006,-1.03986,10.22202
2131313110,21.9,0.0756251164889143,-0.023439771854283843,-0.002129301687433082,0.85347,-0.89271,9.44703
2136363615,21.9,0.08841837990603273,-0.013840460968315033,0.0,0.70632,-0.8338500000000001,9.79038
2141414120,21.9,0.09800023749948161,-0.021310470166850764,-0.004258603374866164,0.9319500000000001,-0.64746,9.64323
2146464625,21.9,0.09267698328089889,0.007452555906015787,0.0,0.9221400000000001,-0.64746,10.045440000000001
2151515130,21.9,0.08096582400001695,-0.005323254218582705,-0.002129301687433082,0.90252,-0.6278400000000001,10.074869999999999
2156565635,21.9,0.05539675045830002,0.008517206749732328,-0.001064650843716541,0.89271,-0.86328,9.83943
2161616140,21.9,0.05539675045830002,-0.004258603374866164,-0.002129301687433082,0.7848,-0.9711900000000001,9.888480000000001
2166666645,21.9,0.060720004676882725,-0.002129301687433082,-0.004258603374866164,0.90252,-0.9908100000000001,9.760950000000001
2171717150,21.9,0.09161233243718235,0.006387905062299246,-0.001064650843716541,0.94176,-0.8240400000000001,9.80019
2176767655,21.9,0.11185815176031658,0.022375121010567305,-0.003193952531149623,0.8142300000000001,-0.6180300000000001,9.86886
2181818160,21.9,0.09693558665576507,0.02982767691658309,-0.005323254218582705,0.73575,-0.74556,9.89829
2186868665,21.9,0.07777187146886733,0.01918116847941768,-0.002129301687433082,0.51012,-0.75537,9.94734
2191919170,21.9,0.06497860805174888,-0.004258603374866164,-0.002129301687433082,0.5886,-0.89271,10.03563
2196969675,21.9,0.07349581480148122,-0.023439771854283843,0.0,0.60822,-0.9319500000000001,9.81
2202020180,21.9,0.08841837990603273,-0.02982767691658309,0.0,0.8142300000000001,-0.75537,9.7119
2207070685,21.9,0.11611675513518273,-0.02769837522915001,-0.004258603374866164,0.90252,-0.57879,9.74133
2212121190,21.9,0.1097288500728835,-0.023439771854283843,-0.003193952531149623,0.9908100000000001,-0.52974,9.770760000000001
2217171695,21.9,0.09161233243718235,-0.006387905062299246,-0.003193952531149623,1.03986,-0.6278400000000001,9.96696
2222222200,21.9,0.07349581480148122,-0.007452555906015787,-0.002129301687433082,1.06929,-0.7651800000000001,9.937529999999999
2227272705,21.9,0.06178465552059926,0.014905111812031574,-0.001064650843716541,1.08891,-0.9711900000000001,10.01601
2232323210,21.9,0.08203047484373349,0.03621558197888234,-0.001064650843716541,0.95157,-0.84366,9.751140000000001
2237373715,21.9,0.10012953918691468,0.04260348704118158,-0.003193952531149623,0.70632,-0.8142300000000001,9.73152
2242424220,21.9,0.11398745344774965,0.04260348704118158,-0.004258603374866164,0.60822,-0.6867000000000001,9.69228
2247474725,21.9,0.11824605682261582,0.015987215948268057,-0.003193952531149623,0.44145,-0.5886,9.78057
2252525230,21.9,0.10653489754173388,-0.003193952531149623,-0.003193952531149623,0.50031,-0.63765,9.96696
2257575735,21.9,0.09161233243718235,-0.014905111812031574,-0.002129301687433082,0.5886,-0.65727,10.08468
2262626240,21.9,0.08735372906231618,-0.01918116847941768,0.0,0.6670800000000001,-0.64746,9.98658
2267676745,21.9,0.08948303074974927,-0.02556907354171693,0.0,0.6867000000000001,-0.6670800000000001,9.623610000000001
2272727250,21.9,0.08735372906231618,-0.039409534510031964,0.0,0.8142300000000001,-0.80442,9.633420000000001
2277777755,21.9,0.09693558665576507,-0.04153883619746504,-0.002129301687433082,0.9908100000000001,-0.8338500000000001,9.70209
2282828260,21.9,0.10545279340549739,-0.02982767691658309,0.0,1.22625,-0.7848,10.03563
2287878765,21.9,0.11292280260403312,0.006387905062299246,-0.003193952531149623,1.22625,-0.69651,10.280880000000002
2292929270,21.9,0.1171814059788993,0.02556907354171693,-0.004258603374866164,1.08891,-0.56898,9.87867
2297979775,21.9,0.10119419003063122,0.04581489286485115,-0.004258603374866164,0.80442,-0.64746,9.64323
2303030280,21.9,0.10119419003063122,0.02982767691658309,-0.004258603374866164,0.71613,-0.8240400000000001,9.4176
2308080785,21.9,0.10332349171806432,0.02982767691658309,-0.002129301687433082,0.65727,-0.7749900000000001,9.87867
2313131290,21.9,0.12995721610349775,0.02769837522915001,-0.004258603374866164,0.6278400000000001,-0.57879,10.38879
2318181795,21.9,0.1416858286768997,0.002129301687433082,-0.001064650843716541,0.51993,-0.31392000000000003,10.23183
2323232300,21.9,0.11824605682261582,-0.003193952531149623,-0.003193952531149623,0.50031,-0.43164,9.5157
2328282805,21.9,0.07670722062515077,-0.024504422698000388,-0.003193952531149623,0.60822,-0.79461,9.44703
2333333310,21.9,0.06923721142661506,-0.02663372438543347,-0.002129301687433082,0.73575,-1.03005,9.98658
2338383815,21.9,0.10545279340549739,-0.02556907354171693,-0.001064650843716541,0.89271,-0.87309,10.22202
2343434320,21.9,0.14275047952061623,-0.022375121010567305,-0.004258603374866164,0.94176,-0.51012,10.025820000000001
2348484825,21.9,0.14913838458291545,-0.021310470166850764,-0.002129301687433082,0.90252,-0.37278,9.623610000000001
2353535330,21.9,0.14062117783318315,-0.020245819323134222,-0.003193952531149623,1.05948,-0.43164,9.36855
2358585835,21.9,0.10653489754173388,0.015987215948268057,-0.003193952531149623,1.05948,-0.60822,9.92772
2363636340,21.9,0.11079350091660004,0.03089232776029963,-0.001064650843716541,1.03986,-0.59841,10.300500000000001
2368686845,21.9,0.1097288500728835,0.04260348704118158,-0.004258603374866164,0.6768900000000001,-0.56898,10.13373
2373737350,21.9,0.1097288500728835,0.023439771854283843,-0.003193952531149623,0.5395500000000001,-0.64746,9.70209
2378787855,21.9,0.10438814256178083,-0.011711159280881954,0.0,0.50031,-0.80442,9.4176
2383838360,21.9,0.12250466019748199,-0.012775810124598492,-0.002129301687433082,0.75537,-0.73575,9.60399
2388888865,21.9,0.15233233711406508,-0.006387905062299246,-0.005323254218582705,0.73575,-0.40221,10.212209999999999
2393939370,21.9,0.15659094048893124,-0.00958185759344887,-0.001064650843716541,0.8240400000000001,-0.25506,10.025820000000001
2398989875,21.9,0.12569861272863161,-0.006387905062299246,-0.003193952531149623,0.79461,-0.38259000000000004,9.70209
2404040380,21.9,0.08841837990603273,-0.012775810124598492,-0.002129301687433082,0.85347,-0.69651,9.69228
2409090885,21.9,0.09374163412461543,0.007452555906015787,-0.001064650843716541,0.95157,-0.84366,9.91791
2414141390,21.9,0.12569861272863161,0.01918116847941768,-0.003193952531149623,0.79461,-0.64746,10.025820000000001
2419191895,21.9,0.15872024217636432,0.01811651763570114,-0.004258603374866164,0.69651,-0.36297,9.91791
2424242400,21.9,0.15978489302008084,-0.013840460968315033,-0.003193952531149623,0.5886,-0.26487,9.69228
2429292905,21.9,0.12250466019748199,-0.01918116847941768,-0.005323254218582705,0.84366,-0.51993,9.5157
2434343410,21.9,0.10438814256178083,-0.007452555906015787,-0.003193952531149623,0.8829,-0.6670800000000001,10.17297
2439393915,21.9,0.10653489754173388,0.005323254218582705,-0.002129301687433082,0.95157,-0.72594,10.212209999999999
2444444420,21.9,0.12995721610349775,0.022375121010567305,-0.004258603374866164,0.8142300000000001,-0.57879,9.85905
2449494925,21.9,0.14062117783318315,0.0,-0.002129301687433082,0.59841,-0.52974,9.70209
2454545430,21.9,0.150203035426632,-0.01064650843716541,-0.003193952531149623,0.8240400000000001,-0.40221,9.58437
2459595935,21.9,0.15339698795778162,0.0,-0.006387905062299246,0.71613,-0.30411,9.908100000000001
2464646440,21.9,0.150203035426632,-0.004258603374866164,-0.004258603374866164,0.89271,-0.2943,9.97677
2469696945,21.9,0.12356931104119852,0.003193952531149623,-0.001064650843716541,0.74556,-0.49050000000000005,10.09449
2474747450,21.9,0.10545279340549739,-0.003193952531149623,0.0,0.89271,-0.65727,9.85905
2479797955,21.9,0.11505210429146619,0.01064650843716541,-0.006387905062299246,0.7848,-0.63765,10.006200000000002
2484848460,21.9,0.1416858286768997,-0.003193952531149623,-0.005323254218582705,0.7749900000000001,-0.5395500000000001,9.633420000000001
2489898965,21.9,0.16191419470751395,0.008517206749732328,-0.004258603374866164,0.84366,-0.3924,9.496080000000001
2494949470,21.9,0.16831955306233315,-0.006387905062299246,-0.004258603374866164,0.6670800000000001,-0.2943,9.98658
2499999975,21.9,0.14700908289548237,0.0,-0.003193952531149623,0.9810000000000001,-0.35316,10.01601
2505050480,21.9,0.14275047952061623,0.024504422698000388,-0.003193952531149623,0.7651800000000001,-0.24525000000000002,10.29069
2510100985,21.9,0.1352804703220805,0.001064650843716541,-0.003193952531149623,0.63765,-0.34335000000000004,9.80019
2515151490,21.9,0.1171814059788993,0.002129301687433082,-0.003193952531149623,0.71613,-0.5493600000000001,9.30969
2520201995,21.9,0.1171814059788993,-0.01064650843716541,-0.002129301687433082,0.6768900000000001,-0.72594,9.57456
2525252500,21.9,0.150203035426632,-0.006387905062299246,-0.005323254218582705,0.9123300000000001,-0.5493600000000001,10.11411
2530303005,21.9,0.18428931571808121,0.0,-0.004258603374866164,0.79461,-0.07848000000000001,10.320120000000001
2535353510,21.9,0.19387117331153014,0.001064650843716541,-0.005323254218582705,0.7848,0.04905,9.81
2540404015,21.9,0.14275047952061623,-0.007452555906015787,-0.001064650843716541,0.69651,-0.15696000000000002,9.53532
2545454520,21.9,0.10545279340549739,0.007452555906015787,-0.003193952531149623,0.86328,-0.6180300000000001,9.47646
2550505025,21.9,0.10653489754173388,0.013840460968315033,-0.003193952531149623,0.69651,-0.6768900000000001,10.08468
2555555530,21.9,0.15339698795778162,-0.002129301687433082,-0.002129301687433082,0.69651,-0.43164,10.34955
2560606035,21.9,0.17896606149949854,-0.01918116847941768,-0.002129301687433082,0.71613,-0.18639,9.94734
2565656540,21.9,0.1672549022186166,-0.024504422698000388,-0.004258603374866164,0.8338500000000001,-0.17658,9.45684
2570707045,21.9,0.150203035426632,-0.013840460968315033,-0.005323254218582705,0.9810000000000001,-0.2943,9.623610000000001
2575757550,21.9,0.14275047952061623,0.006387905062299246,-0.003193952531149623,1.03005,-0.28449,9.87867
2580808055,21.9,0.14594443205176583,0.012775810124598492,-0.003193952531149623,0.86328,-0.3924,10.212209999999999
2585858560,21.9,0.1331511686346474,0.006387905062299246,-0.003193952531149623,0.8338500000000001,-0.43164,10.19259
2590909065,21.9,0.14381513036433274,0.02663372438543347,-0.003193952531149623,0.7749900000000001,-0.33354000000000006,9.73152
2595959570,21.9,0.17683675981206545,0.013840460968315033,-0.004258603374866164,0.59841,-0.15696000000000002,9.55494
2601010075,21.9,0.1800307123432151,0.008517206749732328,-0.006387905062299246,0.64746,-0.10791,9.44703
2606060580,21.9,0.14913838458291545,0.004258603374866164,-0.003193952531149623,0.65727,-0.37278,9.96696
2611111085,21.9,0.1288925652597812,0.012775810124598492,-0.005323254218582705,0.70632,-0.33354000000000006,10.61442
2616161590,21.9,0.15126768627034853,-0.007452555906015787,-0.003193952531149623,0.60822,-0.32373,10.23183
2621212095,21.9,0.16404349639494703,0.0,-0.004258603374866164,0.60822,-0.12753,9.33912
2626262600,21.9,0.1672549022186166,-0.01918116847941768,-0.001064650843716541,0.56898,-0.26487,9.34893
2631313105,21.9,0.15659094048893124,-0.01918116847941768,-0.005323254218582705,0.80442,-0.31392000000000003,9.67266
2636363610,21.9,0.16084954386379738,0.0,-0.005323254218582705,0.8829,-0.20601000000000003,10.34955
2641414115,21.9,0.19600047499896323,-0.011711159280881954,-0.005323254218582705,0.84366,0.07848000000000001,10.19259
2646464620,21.9,0.16191419470751395,0.006387905062299246,-0.002129301687433082,0.7749900000000001,-0.07848000000000001,9.69228
2651515125,21.9,0.13208651779093086,-0.005323254218582705,-0.001064650843716541,0.8338500000000001,-0.35316,9.56475
2656565630,21.9,0.1278279144160647,0.005323254218582705,-0.003193952531149623,0.71613,-0.38259000000000004,9.70209
2661616135,21.9,0.16617279808238014,-0.014905111812031574,-0.003193952531149623,0.87309,-0.28449,10.045440000000001
2666666640,21.9,0.19600047499896323,-0.00958185759344887,-0.002129301687433082,0.90252,0.04905,9.94734
2671717145,21.9,0.18109536318693162,-0.014905111812031574,-0.004258603374866164,0.8142300000000001,0.019620000000000002,9.82962
2676767650,21.9,0.15339698795778162,0.01064650843716541,-0.006387905062299246,1.03986,-0.16677000000000003,9.65304
2681818155,21.9,0.1278279144160647,0.033021629447732716,-0.004258603374866164,0.7651800000000001,-0.35316,9.83943
2686868660,21.9,0.1672549022186166,0.023439771854283843,-0.001064650843716541,0.7651800000000001,-0.21582,10.006200000000002
2691919165,21.9,0.17364280728091586,0.021310470166850764,-0.005323254218582705,0.59841,-0.0981,10.08468
2696969670,21.9,0.17896606149949854,0.01811651763570114,-0.006387905062299246,0.60822,-0.02943,9.908100000000001
2702020175,21.9,0.18109536318693162,0.002129301687433082,-0.004258603374866164,0.42183,0.039240000000000004,9.66285
2707070680,21.9,0.1757721089683489,-0.005323254218582705,-0.005323254218582705,0.59841,0.05886,9.58437
2712121185,21.9,0.150203035426632,-0.006387905062299246,-0.002129301687433082,0.57879,-0.2943,9.91791
2717171690,21.9,0.12463396188491506,-0.007452555906015787,-0.003193952531149623,0.6768900000000001,-0.41202000000000005,10.37898
2722222195,21.9,0.15233233711406508,-0.02556907354171693,-0.002129301687433082,0.63765,-0.35316,10.24164
2727272700,21.9,0.19280652246781357,-0.03515093113516579,-0.006387905062299246,0.8240400000000001,-0.039240000000000004,9.58437
2732323205,21.9,0.2162462943220974,-0.039409534510031964,-0.003193952531149623,0.8829,0.08829,9.29988
2737373710,21.9,0.20134118251006583,-0.021310470166850764,-0.004258603374866164,1.0791000000000002,0.20601000000000003,9.58437
2742424215,21.9,0.17257815643719931,0.003193952531149623,-0.004258603374866164,1.1281500000000002,0.06867000000000001,10.212209999999999
2747474720,21.9,0.1672549022186166,0.007452555906015787,-0.005323254218582705,1.03986,0.05886,10.38879
2752525225,21.9,0.15446163880149816,0.022375121010567305,-0.002129301687433082,1.00062,0.0,9.97677
2757575730,21.9,0.15659094048893124,0.03728023282259888,-0.002129301687433082,0.73575,-0.13734000000000002,9.47646
2762626235,21.9,0.1555262896452147,0.033021629447732716,-0.005323254218582705,0.6180300000000001,-0.13734000000000002,9.25083
2767676740,21.9,0.17257815643719931,0.03089232776029963,-0.006387905062299246,0.6670800000000001,-0.17658,9.70209
2772727245,21.9,0.20240583335378237,0.022375121010567305,-0.005323254218582705,0.45126,0.1962,10.320120000000001
2777777750,21.9,0.20240583335378237,0.008517206749732328,-0.006387905062299246,0.5591700000000001,0.21582,10.09449
2782828255,21.9,0.15978489302008084,-0.004258603374866164,-0.005323254218582705,0.40221,0.0,9.80019
2787878760,21.9,0.1480737337391989,-0.00958185759344887,-0.002129301687433082,0.51993,-0.04905,9.48627
2792929265,21.9,0.17470745812463237,-0.021310470166850764,-0.005323254218582705,0.5886,0.009810000000000001,9.59418
2797979770,21.9,0.18854791909294744,-0.028763026072866547,-0.003193952531149623,0.72594,0.1962,9.937529999999999
2803030275,21.9,0.18641861740551433,-0.03515093113516579,-0.004258603374866164,0.7651800000000001,0.10791,10.045440000000001
2808080780,21.9,0.17257815643719931,-0.04366813788489812,-0.006387905062299246,0.9319500000000001,0.11772,9.81
2813131285,21.9,0.16191419470751395,-0.020245819323134222,-0.004258603374866164,1.1477700000000002,0.05886,9.69228
2818181790,21.9,0.17151350559348277,0.013840460968315033,-0.005323254218582705,1.1183400000000001,0.11772,9.84924
2823232295,21.9,0.16404349639494703,0.02556907354171693,-0.005323254218582705,0.8829,0.02943,9.98658
2828282800,21.9,0.15765559133264778,0.020245819323134222,-0.004258603374866164,0.84366,-0.08829,9.819809999999999
2833333305,21.9,0.16938420390604966,0.020245819323134222,-0.006387905062299246,0.6867000000000001,0.039240000000000004,9.72171
2838383810,21.9,0.19814722997891623,0.01811651763570114,-0.005323254218582705,0.84366,0.15696000000000002,9.59418
2843434315,21.9,0.19600047499896323,0.046879543708567686,-0.007452555906015787,0.6180300000000001,0.28449,10.025820000000001
2848484820,21.9,0.18535396656179778,0.031956978604016174,-0.003193952531149623,0.46107000000000004,0.25506,10.143540000000002
2853535325,21.9,0.16938420390604966,0.002129301687433082,-0.002129301687433082,0.3924,0.15696000000000002,9.86886
2858585830,21.9,0.16084954386379738,-0.006387905062299246,-0.002129301687433082,0.46107000000000004,0.10791,9.69228
2863636335,21.9,0.17257815643719931,-0.011711159280881954,-0.004258603374866164,0.5493600000000001,0.0981,9.6138
2868686840,21.9,0.177901410655782,-0.028763026072866547,-0.003193952531149623,0.52974,0.12753,9.81
2873737345,21.9,0.177901410655782,-0.03621558197888234,-0.003193952531149623,0.80442,0.0981,10.09449
2878787850,21.9,0.19174187162409706,-0.03728023282259888,-0.005323254218582705,0.84366,0.18639,10.01601
2883838355,21.9,0.19067722078038052,-0.02556907354171693,-0.006387905062299246,0.9711900000000001,0.26487,9.68247
2888888860,21.9,0.18535396656179778,-0.003193952531149623,-0.005323254218582705,1.02024,0.23544,9.6138
2893939365,21.9,0.17257815643719931,0.003193952531149623,-0.003193952531149623,0.89271,0.27468000000000004,9.73152
2898989870,21.9,0.17151350559348277,0.012775810124598492,-0.004258603374866164,1.00062,0.15696000000000002,9.98658
2904040375,21.9,0.18109536318693162,0.02769837522915001,-0.006387905062299246,0.8142300000000001,0.32373,10.05525
2909090880,21.9,0.19387117331153014,0.02663372438543347,-0.004258603374866164,0.69651,0.41202000000000005,9.70209
2914141385,21.9,0.19387117331153014,0.01811651763570114,-0.00958185759344887,0.64746,0.45126,9.6138
2919191890,21.9,0.1704488547497662,0.01811651763570114,-0.003193952531149623,0.56898,0.33354000000000006,9.79038
2924242395,21.9,0.15446163880149816,0.01918116847941768,-0.007452555906015787,0.60822,0.18639,9.83943
2929292900,21.9,0.14700908289548237,0.008517206749732328,-0.005323254218582705,0.47088,0.0981,9.84924
2934343405,21.9,0.15659094048893124,-0.002129301687433082,-0.001064650843716541,0.57879,0.02943,9.819809999999999
2939393910,21.9,0.18535396656179778,-0.006387905062299246,-0.001064650843716541,0.51993,0.25506,9.98658
2944444415,21.9,0.20879373841608162,-0.021310470166850764,-0.002129301687433082,0.59841,0.42183,9.94734
2949494920,21.9,0.20985838925979816,-0.02982767691658309,-0.005323254218582705,0.63765,0.51993,9.64323
2954545425,21.9,0.19174187162409706,-0.03728023282259888,-0.004258603374866164,0.73575,0.47088,9.37836
2959595930,21.9,0.16191419470751395,-0.03515093113516579,-0.002129301687433082,1.03005,0.33354000000000006,9.87867
2964646435,21.9,0.14487978120804929,0.008517206749732328,-0.005323254218582705,1.04967,0.25506,10.44765
2969696940,21.9,0.17364280728091586,0.021310470166850764,-0.004258603374866164,0.8338500000000001,0.30411,10.280880000000002
2974747445,21.9,0.19067722078038052,0.002129301687433082,-0.005323254218582705,0.71613,0.3924,9.42741
2979797950,21.9,0.19493582415524666,0.003193952531149623,-0.004258603374866164,0.70632,0.42183,9.10368
2984848455,21.9,0.1832246648743647,-0.001064650843716541,-0.005323254218582705,0.7749900000000001,0.42183,9.66285
2989898960,21.9,0.1672549022186166,0.0170518667919846,-0.005323254218582705,0.9123300000000001,0.33354000000000006,10.38879
2994949465,21.9,0.17257815643719931,0.01918116847941768,-0.006387905062299246,0.6768900000000001,0.37278,10.51632
2999999970,21.9,0.18216001403064813,0.00958185759344887,-0.001064650843716541,0.5591700000000001,0.40221,9.633420000000001
3005050475,21.9,0.1800307123432151,-0.005323254218582705,-0.003193952531149623,0.52974,0.34335000000000004,9.13311
3010100980,21.9,0.18428931571808121,0.014905111812031574,-0.005323254218582705,0.73575,0.46107000000000004,9.496080000000001
3015151485,21.9,0.19493582415524666,0.007452555906015787,-0.003193952531149623,0.56898,0.52974,10.006200000000002
3020201990,21.9,0.19387117331153014,0.01918116847941768,-0.004258603374866164,0.57879,0.6278400000000001,10.212209999999999
3025252495,21.9,0.1757721089683489,0.004258603374866164,-0.004258603374866164,0.47088,0.48069000000000006,10.09449
3030303000,21.9,0.15978489302008084,-0.012775810124598492,-0.005323254218582705,0.5493600000000001,0.44145,9.58437
3035353505,21.9,0.16510814723866357,-0.024504422698000388,-0.002129301687433082,0.51993,0.38259000000000004,9.633420000000001
3040404010,21.9,0.19280652246781357,-0.03621558197888234,-0.003193952531149623,0.74556,0.5493600000000001,9.55494
3045454515,21.9,0.19174187162409706,-0.03408628029144926,-0.004258603374866164,0.75537,0.5886,9.770760000000001
3050505020,21.9,0.17896606149949854,-0.033021629447732716,-0.004258603374866164,1.02024,0.5395500000000001,9.908100000000001
3055555525,21.9,0.1629788455512305,0.007452555906015787,-0.003193952531149623,1.05948,0.47088,10.11411
3060606030,21.9,0.18109536318693162,0.014905111812031574,-0.004258603374866164,0.9123300000000001,0.56898,9.888480000000001
3065656535,21.9,0.18216001403064813,0.022375121010567305,-0.004258603374866164,0.74556,0.63765,9.623610000000001
3070707040,21.9,0.1672549022186166,0.006387905062299246,-0.002129301687433082,0.73575,0.47088,9.52551
3075757545,21.9,0.15978489302008084,0.015987215948268057,-0.005323254218582705,0.74556,0.44145,9.60399
3080808050,21.9,0.1757721089683489,0.031956978604016174,-0.005323254218582705,0.75537,0.5591700000000001,10.03563
3085858555,21.9,0.20027653166634932,0.02663372438543347,-0.005323254218582705,0.57879,0.74556,10.19259
3090909060,21.9,0.19067722078038052,0.012775810124598492,-0.004258603374866164,0.38259000000000004,0.72594,9.89829
3095959565,21.9,0.15872024217636432,-0.022375121010567305,-0.002129301687433082,0.43164,0.50031,9.58437
3101010070,21.9,0.14275047952061623,-0.003193952531149623,-0.004258603374866164,0.73575,0.41202000000000005,9.44703
3106060575,21.9,0.17151350559348277,-0.003193952531149623,-0.005323254218582705,0.5493600000000001,0.52974,9.85905
3111111080,21.9,0.19708257913519966,0.004258603374866164,-0.005323254218582705,0.7749900000000001,0.69651,10.15335
3116161585,21.9,0.18535396656179778,-0.02556907354171693,-0.002129301687433082,0.5395500000000001,0.64746,10.2024
3121212090,21.9,0.1704488547497662,-0.049008845396000776,-0.005323254218582705,0.8142300000000001,0.5886,9.48627
3126262595,21.9,0.1757721089683489,-0.0170518667919846,-0.005323254218582705,0.9810000000000001,0.63765,9.48627
3131313100,21.9,0.19814722997891623,0.00958185759344887,-0.004258603374866164,0.9613800000000001,0.87309,9.64323
3136363605,21.9,0.1800307123432151,0.04153883619746504,-0.001064650843716541,0.74556,0.8142300000000001,10.01601
3141414110,21.9,0.15233233711406508,0.013840460968315033,-0.003193952531149623,0.64746,0.5886,10.006200000000002
3146464615,21.9,0.1480737337391989,0.02769837522915001,-0.005323254218582705,0.6180300000000001,0.56898,9.760950000000001
3151515120,21.9,0.17683675981206545,0.021310470166850764,-0.003193952531149623,0.52974,0.72594,9.68247
3156565625,21.9,0.19280652246781357,0.012775810124598492,-0.003193952531149623,0.45126,0.86328,9.633420000000001
3161616130,21.9,0.16831955306233315,-0.004258603374866164,-0.003193952531149623,0.44145,0.73575,9.73152
3166666635,21.9,0.1480737337391989,-0.02982767691658309,-0.002129301687433082,0.5591700000000001,0.57879,9.770760000000001
3171717140,21.9,0.15765559133264778,-0.02982767691658309,-0.001064650843716541,0.8142300000000001,0.59841,9.91791
3176767645,21.9,0.18428931571808121,-0.01064650843716541,-0.004258603374866164,0.8142300000000001,0.7848,9.99639
3181818150,21.9,0.18854791909294744,-0.012775810124598492,-0.002129301687433082,0.74556,0.8338500000000001,9.78057
3186868655,21.9,0.17470745812463237,-0.008517206749732328,-0.004258603374866164,0.75537,0.8240400000000001,9.56475
3191919160,21.9,0.1672549022186166,-0.012775810124598492,-0.006387905062299246,0.84366,0.7848,9.496080000000001
3196969665,21.9,0.16191419470751395,0.012775810124598492,-0.005323254218582705,0.89271,0.84366,9.79038
3202020170,21.9,0.1704488547497662,0.02982767691658309,-0.004258603374866164,0.8142300000000001,0.8142300000000001,10.13373
3207070675,21.9,0.15765559133264778,0.03515093113516579,-0.004258603374866164,0.6180300000000001,0.7749900000000001,9.98658
3212121180,21.9,0.14913838458291545,0.01918116847941768,-0.006387905062299246,0.37278,0.6670800000000001,9.68247
3217171685,21.9,0.16510814723866357,-0.005323254218582705,-0.005323254218582705,0.51012,0.73575,9.32931
3222222190,21.9,0.17364280728091586,-0.005323254218582705,-0.005323254218582705,0.51993,0.85347,9.60399
3227272695,21.9,0.17151350559348277,-0.011711159280881954,-0.004258603374866164,0.70632,0.79461,9.98658
3232323200,21.9,0.16404349639494703,0.01064650843716541,-0.005323254218582705,0.6768900000000001,0.87309,10.300500000000001
3237373705,21.9,0.17257815643719931,0.003193952531149623,-0.004258603374866164,0.5493600000000001,0.8829,9.96696
3242424210,21.9,0.16938420390604966,-0.006387905062299246,-0.004258603374866164,0.48069000000000006,0.8829,9.30969
3247474715,21.9,0.15446163880149816,-0.01064650843716541,-0.004258603374866164,0.57879,0.8338500000000001,9.32931
3252525220,21.9,0.1555262896452147,-0.0170518667919846,-0.004258603374866164,0.7848,0.8338500000000001,9.92772
3257575725,21.9,0.15339698795778162,-0.00958185759344887,-0.004258603374866164,0.72594,0.84366,10.300500000000001
3262626230,21.9,0.17470745812463237,-0.005323254218582705,-0.006387905062299246,0.79461,0.9123300000000001,10.01601
3267676735,21.9,0.17151350559348277,-0.006387905062299246,-0.003193952531149623,0.63765,0.94176,9.36855
3272727240,21.9,0.150203035426632,-0.002129301687433082,-0.006387905062299246,0.79461,0.8338500000000001,9.28026
3277777745,21.9,0.15339698795778162,-0.007452555906015787,-0.003193952531149623,0.80442,0.8829,9.937529999999999
3282828250,21.9,0.1672549022186166,0.001064650843716541,-0.003193952531149623,0.86328,0.9711900000000001,10.17297
3287878755,21.9,0.1672549022186166,0.008517206749732328,-0.003193952531149623,0.7651800000000001,0.9613800000000001,9.98658
3292929260,21.9,0.1555262896452147,0.022375121010567305,-0.005323254218582705,0.70632,0.9123300000000001,9.37836
3297979765,21.9,0.15126768627034853,0.03728023282259888,-0.005323254218582705,0.69651,0.89271,9.36855
3303030270,21.9,0.15659094048893124,0.03728023282259888,-0.003193952531149623,0.44145,0.9711900000000001,9.888480000000001
3308080775,21.9,0.16084954386379738,0.014905111812031574,-0.004258603374866164,0.33354000000000006,1.04967,10.13373
3313131280,21.9,0.15339698795778162,-0.015987215948268057,-0.003193952531149623,0.38259000000000004,0.9319500000000001,9.92772
3318181785,21.9,0.13634512116579703,-0.03834488366631542,-0.003193952531149623,0.45126,0.85347,9.42741
3323232290,21.9,0.15126768627034853,-0.01918116847941768,-0.004258603374866164,0.79461,0.8829,9.3195
3328282795,21.9,0.1757721089683489,-0.007452555906015787,-0.004258603374866164,0.64746,1.1183400000000001,9.81
3333333300,21.9,0.17470745812463237,-0.003193952531149623,-0.004258603374866164,0.75537,1.19682,10.1043
3338383805,21.9,0.1555262896452147,-0.020245819323134222,-0.001064650843716541,0.6278400000000001,1.08891,9.96696
3343434310,21.9,0.13208651779093086,-0.02556907354171693,-0.003193952531149623,0.7651800000000001,0.94176,9.56475
3348484815,21.9,0.13102186694721432,-0.015987215948268057,-0.003193952531149623,0.9810000000000001,0.86328,9.32931
3353535320,21.9,0.14700908289548237,0.023439771854283843,-0.003193952531149623,0.9221400000000001,1.03986,9.73152
3358585825,21.9,0.15872024217636432,0.0404741853537485,-0.006387905062299246,0.79461,1.0791000000000002,10.19259
3363636330,21.9,0.1555262896452147,0.03621558197888234,-0.006387905062299246,0.5591700000000001,1.05948,10.025820000000001
3368686835,21.9,0.15659094048893124,0.03408628029144926,-0.004258603374866164,0.46107000000000004,1.0791000000000002,9.48627
3373737340,21.9,0.14275047952061623,0.014905111812031574,-0.006387905062299246,0.44145,1.03005,9.25083
3378787845,21.9,0.1288925652597812,0.013840460968315033,-0.002129301687433082,0.41202000000000005,1.00062,9.633420000000001
3383838350,21.9,0.1331511686346474,-0.001064650843716541,-0.001064650843716541,0.37278,0.9810000000000001,10.26126
3388888855,21.9,0.15872024217636432,-0.031956978604016174,-0.004258603374866164,0.3924,1.06929,10.26126
3393939360,21.9,0.1704488547497662,-0.04581489286485115,-0.005323254218582705,0.6278400000000001,1.16739,9.45684
3398989865,21.9,0.15872024217636432,-0.03515093113516579,-0.003193952531149623,0.73575,1.21644,9.172350000000002
3404040370,21.9,0.14487978120804929,-0.020245819323134222,-0.003193952531149623,0.9613800000000001,1.19682,9.4176
3409090875,21.9,0.11931070766633237,0.031956978604016174,-0.001064650843716541,0.7651800000000001,1.03986,10.045440000000001
3414141380,21.9,0.12569861272863161,0.01918116847941768,-0.002129301687433082,0.6867000000000001,1.02024,10.398600000000002
3419191885,21.9,0.14062117783318315,0.003193952531149623,-0.001064650843716541,0.57879,1.0987200000000001,9.83943
3424242390,21.9,0.14381513036433274,-0.020245819323134222,-0.004258603374866164,0.5591700000000001,1.00062,9.23121
3429292895,21.9,0.15339698795778162,-0.01811651763570114,-0.003193952531149623,0.80442,1.21644,9.24102
3434343400,21.9,0.15126768627034853,0.020245819323134222,-0.004258603374866164,0.8240400000000001,1.22625,9.760950000000001
3439393905,21.9,0.15339698795778162,0.03728023282259888,-0.006387905062299246,0.72594,1.29492,10.22202
3444444410,21.9,0.12463396188491506,0.054332099614583476,-0.005323254218582705,0.43164,1.22625,10.143540000000002
3449494915,21.9,0.11398745344774965,0.03728023282259888,-0.004258603374866164,0.35316,0.9123300000000001,9.5157
3454545420,21.9,0.11079350091660004,0.02663372438543347,-0.003193952531149623,0.12753,1.01043,9.37836
3459595925,21.9,0.14275047952061623,0.0,0.0,0.33354000000000006,1.08891,9.53532
3464646430,21.9,0.16404349639494703,-0.03089232776029963,0.0,0.18639,1.29492,9.97677
3469696935,21.9,0.14913838458291545,-0.05965535383316618,-0.004258603374866164,0.48069000000000006,1.34397,10.11411
3474747440,21.9,0.14700908289548237,-0.09161233243718235,-0.002129301687433082,0.65727,1.2360600000000002,9.84924
3479797945,21.9,0.11931070766633237,-0.07456046564519776,-0.003193952531149623,1.04967,1.20663,9.34893
3484848450,21.9,0.12144000935376545,-0.02556907354171693,-0.004258603374866164,1.2556800000000001,1.1183400000000001,9.45684
3489898955,21.9,0.12676326357234816,-0.003193952531149623,-0.004258603374866164,1.15758,1.19682,9.770760000000001
3494949460,21.9,0.12995721610349775,0.06710790973918197,-0.004258603374866164,1.10853,1.22625,9.80019
3499999965,21.9,0.14700908289548237,0.06923721142661506,-0.005323254218582705,0.65727,1.3047300000000002,9.95715
3505050470,21.9,0.14275047952061623,0.10119419003063122,-0.007452555906015787,0.52974,1.40283,9.60399
3510100975,21.9,0.13102186694721432,0.10119419003063122,-0.006387905062299246,0.12753,1.3243500000000001,9.55494
3515151480,21.9,0.10438814256178083,0.06923721142661506,-0.004258603374866164,-0.14715,1.3047300000000002,9.60399
3520201985,21.9,0.10225884087434776,0.015987215948268057,-0.002129301687433082,-0.1962,1.16739,9.770760000000001
3525252490,21.9,0.11292280260403312,-0.05539675045830002,-0.001064650843716541,-0.05886,1.1477700000000002,9.74133
3530302995,21.9,0.12356931104119852,-0.10012953918691468,0.001064650843716541,0.20601000000000003,1.20663,9.83943
3535353500,21.9,0.13849187614575004,-0.13634512116579703,0.001064650843716541,0.6867000000000001,1.2851100000000002,9.57456
3540404005,21.9,0.12995721610349775,-0.10545279340549739,0.002129301687433082,1.10853,1.31454,9.52551
3545454510,21.9,0.12144000935376545,-0.08735372906231618,0.003193952531149623,1.2753,1.6480800000000002,9.79038
3550505015,21.9,0.10653489754173388,-0.03408628029144926,-0.001064650843716541,1.8737100000000002,1.06929,10.045440000000001
3555555520,21.9,0.08203047484373349,0.024504422698000388,-0.004258603374866164,1.24587,1.13796,9.760950000000001
3560606025,21.9,0.10119419003063122,0.06391395720803235,-0.004258603374866164,1.2360600000000002,1.03986,9.50589
3565656530,21.9,0.12995721610349775,0.09267698328089889,-0.01064650843716541,0.87309,1.1772,9.33912
3570707035,21.9,0.13955652698946658,0.12356931104119852,-0.007452555906015787,0.51993,1.39302,9.69228
3575757540,21.9,0.150203035426632,0.09693558665576507,-0.007452555906015787,0.1962,1.52055,9.937529999999999
3580808045,21.9,0.11931070766633237,0.07670722062515077,-0.007452555906015787,-0.0981,1.4813100000000001,10.163160000000001
3585858550,21.9,0.10653489754173388,0.020245819323134222,-0.004258603374866164,-0.17658,1.40283,9.908100000000001
3590909055,21.9,0.10653489754173388,-0.024504422698000388,-0.004258603374866164,-0.11772,1.3832099999999998,9.43722
3595959560,21.9,0.1097288500728835,-0.07243116395776468,0.0,0.11772,1.40283,9.13311
3601010065,21.9,0.10545279340549739,-0.08309512568745003,0.002129301687433082,0.51993,1.40283,9.43722
3606060570,21.9,0.09800023749948161,-0.10012953918691468,0.0,0.75537,1.42245,9.97677
3611111075,21.9,0.10119419003063122,-0.0852244273748831,0.0,1.20663,1.40283,10.25145
3616161580,21.9,0.09480628496833199,-0.02556907354171693,0.0,1.1477700000000002,1.2753,10.025820000000001
3621212085,21.9,0.10653489754173388,-0.023439771854283843,0.0,1.15758,1.1870100000000001,9.074250000000001
3626262590,21.9,0.08735372906231618,0.02769837522915001,-0.003193952531149623,1.1870100000000001,1.2753,9.11349
3631313095,21.9,0.09374163412461543,0.05326744877086694,-0.004258603374866164,1.03986,1.29492,9.73152
3636363600,21.9,0.11505210429146619,0.06710790973918197,-0.004258603374866164,0.75537,1.41264,10.280880000000002
3641414105,21.9,0.12356931104119852,0.06284930636431581,-0.006387905062299246,0.49050000000000005,1.52055,10.182780000000001
3646464610,21.9,0.12356931104119852,0.0404741853537485,-0.003193952531149623,0.2943,1.52055,9.43722
3651515115,21.9,0.11079350091660004,0.002129301687433082,-0.002129301687433082,0.23544,1.5303600000000002,9.09387
3656565620,21.9,0.09693558665576507,-0.007452555906015787,-0.001064650843716541,0.43164,1.5499800000000001,9.28026
3661616125,21.9,0.07883652231258387,-0.011711159280881954,0.0,0.45126,1.4813100000000001,10.12392
3666666630,21.9,0.0756251164889143,-0.05539675045830002,-0.001064650843716541,0.57879,1.34397,10.163160000000001
3671717135,21.9,0.07349581480148122,-0.044732788728614664,0.001064650843716541,0.8142300000000001,1.2753,9.74133
3676767640,21.9,0.0852244273748831,-0.044732788728614664,-0.001064650843716541,0.8142300000000001,1.24587,9.37836
3681818145,21.9,0.10653489754173388,-0.031956978604016174,-0.003193952531149623,1.05948,1.46169,9.14292
3686868650,21.9,0.10119419003063122,0.014905111812031574,-0.001064650843716541,1.13796,1.5990300000000002,9.64323
3691919155,21.9,0.07883652231258387,0.054332099614583476,-0.003193952531149623,1.00062,1.34397,10.11411
3696969660,21.9,0.08309512568745003,0.06391395720803235,-0.005323254218582705,0.75537,1.39302,9.87867
3702020165,21.9,0.08415977653116657,0.08628907821859966,-0.006387905062299246,0.35316,1.42245,9.751140000000001
3707070670,21.9,0.09480628496833199,0.049008845396000776,-0.004258603374866164,0.12753,1.45188,9.496080000000001
3712121175,21.9,0.09800023749948161,0.03089232776029963,-0.003193952531149623,0.11772,1.5696,9.47646
3717171680,21.9,0.08948303074974927,0.003193952531149623,-0.004258603374866164,0.10791,1.5303600000000002,9.751140000000001
3722222185,21.9,0.08096582400001695,-0.0170518667919846,-0.002129301687433082,0.20601000000000003,1.46169,9.888480000000001
3727272690,21.9,0.08096582400001695,-0.02769837522915001,-0.003193952531149623,0.28449,1.51074,9.770760000000001
3732323195,21.9,0.06604325889546543,-0.03515093113516579,0.001064650843716541,0.45126,1.40283,9.496080000000001
3737373700,21.9,0.06497860805174888,-0.03408628029144926,-0.002129301687433082,0.5493600000000001,1.3635900000000003,9.58437
3742424205,21.9,0.08203047484373349,-0.039409534510031964,-0.001064650843716541,0.5886,1.51074,9.81
3747474710,21.9,0.09800023749948161,-0.046879543708567686,-0.001064650843716541,0.8240400000000001,1.55979,9.70209
3752525215,21.9,0.08841837990603273,-0.028763026072866547,0.0,0.80442,1.71675,9.64323
3757575720,21.9,0.08628907821859966,-0.03621558197888234,-0.001064650843716541,1.01043,1.7756100000000001,9.50589
3762626225,21.9,0.05220279792715039,-0.008517206749732328,-0.001064650843716541,1.1183400000000001,1.49112,9.633420000000001
3767676730,21.9,0.03621558197888234,0.006387905062299246,-0.001064650843716541,0.94176,1.3341600000000002,9.633420000000001
3772727235,21.9,0.05752605214573309,0.0,0.0,0.90252,1.3243500000000001,9.6138
3777777740,21.9,0.06604325889546543,0.007452555906015787,0.0,0.95157,1.3734000000000002,9.54513
3782828245,21.9,0.07670722062515077,0.023439771854283843,-0.005323254218582705,0.8240400000000001,1.51074,9.70209
3787878750,21.9,0.09161233243718235,0.008517206749732328,-0.003193952531149623,0.72594,1.73637,9.79038
3792929255,21.9,0.08203047484373349,0.022375121010567305,-0.004258603374866164,0.7848,1.5990300000000002,9.74133
3797979760,21.9,0.06497860805174888,0.013840460968315033,-0.002129301687433082,0.5493600000000001,1.60884,9.50589
3803030265,21.9,0.060720004676882725,0.008517206749732328,-0.001064650843716541,0.6867000000000001,1.60884,9.38817
3808080770,21.9,0.05539675045830002,0.012775810124598492,-0.003193952531149623,0.57879,1.58922,9.55494
3813131275,21.9,0.05113814708343386,0.028763026072866547,0.0,0.5395500000000001,1.5990300000000002,9.770760000000001
3818181780,21.9,0.05539675045830002,0.015987215948268057,0.0,0.51993,1.5794100000000002,9.81
3823232285,21.9,0.04581489286485115,0.023439771854283843,-0.001064650843716541,0.42183,1.55979,9.87867
3828282790,21.9,0.04153883619746504,0.007452555906015787,-0.003193952531149623,0.31392000000000003,1.43226,9.633420000000001
3833333295,21.9,0.0404741853537485,-0.007452555906015787,0.0,0.35316,1.44207,9.39798
3838383800,21.9,0.039409534510031964,-0.023439771854283843,0.001064650843716541,0.47088,1.3734000000000002,9.58437
3843434305,21.9,0.04260348704118158,-0.02663372438543347,-0.002129301687433082,0.64746,1.40283,9.69228
3848484810,21.9,0.05859070298944965,-0.0170518667919846,-0.001064650843716541,0.6867000000000001,1.4813100000000001,9.95715
3853535315,21.9,0.0756251164889143,-0.012775810124598492,-0.001064650843716541,0.71613,1.60884,9.81
3858585820,21.9,0.06923721142661506,-0.003193952531149623,-0.002129301687433082,0.72594,1.68732,9.44703
3863636325,21.9,0.06178465552059926,-0.011711159280881954,-0.001064650843716541,0.6670800000000001,1.9718100000000003,9.47646
3868686830,21.9,0.033021629447732716,-0.023439771854283843,0.0,0.9221400000000001,1.55979,9.82962
3873737335,21.9,0.0,-0.006387905062299246,0.0,0.8142300000000001,1.3734000000000002,9.70209
3878787840,21.9,0.03089232776029963,-0.021310470166850764,0.0,0.85347,1.39302,9.6138
3883838345,21.9,0.05113814708343386,-0.005323254218582705,-0.002129301687433082,0.9319500000000001,1.52055,9.42741
3888888850,21.9,0.054332099614583476,0.014905111812031574,-0.002129301687433082,0.8829,1.6480800000000002,9.623610000000001
3893939355,21.9,0.06178465552059926,0.021310470166850764,-0.001064650843716541,0.9319500000000001,1.6677000000000002,9.67266
3898989860,21.9,0.03621558197888234,0.06391395720803235,-0.004258603374866164,0.6867000000000001,1.58922,9.81
3904040365,21.9,0.04366813788489812,0.06391395720803235,-0.005323254218582705,0.5395500000000001,1.6284600000000002,9.633420000000001
3909090870,21.9,0.031956978604016174,0.08415977653116657,-0.006387905062299246,0.20601000000000003,1.6677000000000002,9.52551
3914141375,21.9,0.033021629447732716,0.04581489286485115,-0.004258603374866164,0.0,1.58922,9.6138
3919191880,21.9,0.02663372438543347,0.011711159280881954,-0.002129301687433082,-0.10791,1.6677000000000002,9.58437
3924242385,21.9,0.03515093113516579,-0.05859070298944965,0.002129301687433082,-0.009810000000000001,1.6382700000000001,9.74133
3929292890,21.9,0.02556907354171693,-0.10438814256178083,0.003193952531149623,0.37278,1.6677000000000002,9.633420000000001
3934343395,21.9,0.012775810124598492,-0.11931070766633237,0.004258603374866164,0.8338500000000001,1.9620000000000002,9.64323
3939393900,21.9,0.011711159280881954,-0.11185815176031658,0.001064650843716541,1.4715,1.6382700000000001,9.84924
3944444405,21.9,-0.03728023282259888,-0.039409534510031964,0.002129301687433082,1.54017,1.15758,9.48627
3949494910,21.9,-0.00958185759344887,0.005323254218582705,0.0,1.41264,1.13796,9.43722
3954545415,21.9,0.022375121010567305,0.04366813788489812,-0.002129301687433082,1.1281500000000002,1.34397,9.59418
3959595920,21.9,0.04794419455228423,0.08948303074974927,-0.005323254218582705,1.1281500000000002,1.40283,9.85905
3964646425,21.9,0.06497860805174888,0.09587093581204853,-0.003193952531149623,0.49050000000000005,1.68732,9.86886
3969696930,21.9,0.05539675045830002,0.08841837990603273,-0.003193952531149623,0.35316,1.7658,9.67266
3974747435,21.9,0.049008845396000776,0.04581489286485115,-0.003193952531149623,0.0981,1.7756100000000001,9.633420000000001
3979797940,21.9,0.023439771854283843,0.021310470166850764,0.0,-0.019620000000000002,1.8639000000000001,9.54513
3984848445,21.9,0.022375121010567305,-0.0404741853537485,0.0,0.13734000000000002,1.7658,9.55494
3989898950,21.9,0.013840460968315033,-0.07030186227033158,0.002129301687433082,0.42183,2.07972,9.54513
3994949455,21.9,0.001064650843716541,-0.07349581480148122,0.0,0.89271,1.8442800000000001,9.72171
3999999960,21.9,-0.03408628029144926,-0.0404741853537485,0.001064650843716541,0.9123300000000001,1.4715,9.66285
4005050465,21.9,-0.04153883619746504,-0.007452555906015787,0.001064650843716541,1.03986,1.3243500000000001,9.358740000000001
4010100970,21.9,-0.02769837522915001,0.020245819323134222,0.0,0.7651800000000001,1.21644,9.56475
4015151475,21.9,-0.012775810124598492,0.002129301687433082,0.002129301687433082,0.71613,1.2556800000000001,9.623610000000001
4020201980,21.9,0.014905111812031574,0.002129301687433082,0.003193952531149623,0.74556,1.3832099999999998,9.937529999999999
4025252485,21.9,0.04153883619746504,-0.03089232776029963,-0.001064650843716541,0.6670800000000001,1.8639000000000001,9.80019
4030302990,21.9,0.05859070298944965,-0.01811651763570114,-0.001064650843716541,1.16739,2.04048,9.68247
4035353495,21.9,0.01918116847941768,0.03089232776029963,-0.003193952531149623,1.03005,1.73637,9.59418
4040404000,21.9,-0.00958185759344887,0.049008845396000776,-0.005323254218582705,0.6867000000000001,1.6775100000000003,9.172350000000002
4045454505,21.9,-0.031956978604016174,0.06710790973918197,-0.003193952531149623,0.57879,1.52055,9.58437
4050505010,21.9,-0.0404741853537485,0.05326744877086694,0.0,0.27468000000000004,1.3734000000000002,9.96696
4055555515,21.9,-0.03515093113516579,0.0170518667919846,0.001064650843716541,0.15696000000000002,1.29492,10.17297
4060606020,21.9,0.002129301687433082,-0.039409534510031964,0.002129301687433082,0.1962,1.3635900000000003,9.770760000000001
4065656525,21.9,0.01918116847941768,-0.07030186227033158,0.0,0.41202000000000005,1.54017,9.3195
4070707030,21.9,0.02982767691658309,-0.08415977653116657,0.001064650843716541,0.79461,2.2268700000000003,9.33912
4075757535,21.9,0.04153883619746504,-0.08628907821859966,0.0,1.5696,2.03067,9.82962
4080808040,21.9,-0.05539675045830002,0.04260348704118158,-0.002129301687433082,1.21644,1.3832099999999998,9.72171
4085858545,21.9,-0.03834488366631542,0.03621558197888234,-0.003193952531149623,0.95157,1.3243500000000001,9.24102
4090909050,21.9,-0.033021629447732716,0.06391395720803235,0.0,0.45126,1.43226,9.52551
4095959555,21.9,-0.00958185759344887,0.04153883619746504,0.0,0.5493600000000001,1.39302,9.66285
4101010060,21.9,0.0170518667919846,0.00958185759344887,-0.002129301687433082,0.27468000000000004,1.72656,10.01601
4106060565,21.9,0.023439771854283843,-0.013840460968315033,0.0,0.49050000000000005,1.79523,9.55494
4111111070,21.9,0.01064650843716541,-0.021310470166850764,-0.001064650843716541,0.49050000000000005,1.95219,9.4176
4116161575,21.9,-0.012775810124598492,-0.015987215948268057,0.0,0.6670800000000001,2.03067,9.39798
4121212080,21.9,-0.0404741853537485,-0.015987215948268057,-0.001064650843716541,0.71613,1.74618,9.48627
4126262585,21.9,-0.06817256058289851,0.001064650843716541,0.003193952531149623,0.72594,1.4715,9.60399
4131313090,21.9,-0.06284930636431581,-0.01811651763570114,0.004258603374866164,0.6670800000000001,1.42245,9.70209
4136363595,21.9,-0.04794419455228423,-0.01918116847941768,0.0,0.79461,1.42245,9.55494
4141414100,21.9,-0.031956978604016174,0.008517206749732328,0.001064650843716541,0.85347,1.50093,9.65304
4146464605,21.9,-0.013840460968315033,0.006387905062299246,0.0,0.69651,1.6480800000000002,9.770760000000001
4151515110,21.9,-0.03089232776029963,0.006387905062299246,0.0,0.6867000000000001,1.55979,9.64323
4156565615,21.9,-0.046879543708567686,0.006387905062299246,-0.001064650843716541,0.6670800000000001,1.4715,9.6138
4161616120,21.9,-0.04260348704118158,-0.00958185759344887,0.0,0.6180300000000001,1.55979,9.623610000000001
4166666625,21.9,-0.02982767691658309,-0.006387905062299246,0.002129301687433082,0.89271,1.70694,9.55494
4171717130,21.9,-0.03621558197888234,0.023439771854283843,0.0,0.8142300000000001,1.6186500000000001,9.82962
4176767635,21.9,-0.0404741853537485,0.021310470166850764,0.002129301687433082,0.60822,1.6284600000000002,9.74133
4181818140,21.9,-0.049008845396000776,0.021310470166850764,0.0,0.5395500000000001,1.5696,9.7119
4186868645,21.9,-0.060720004676882725,0.001064650843716541,0.001064650843716541,0.40221,1.39302,9.72171
4191919150,21.9,-0.06817256058289851,-0.0170518667919846,0.0,0.5591700000000001,1.3635900000000003,9.56475
4196969655,21.9,-0.05220279792715039,-0.02769837522915001,0.003193952531149623,0.65727,1.3047300000000002,9.751140000000001
4202020160,21.9,-0.03834488366631542,-0.012775810124598492,0.0,0.80442,1.44207,9.79038
4207070665,21.9,-0.01918116847941768,-0.008517206749732328,-0.002129301687433082,0.74556,1.6382700000000001,9.80019
4212121170,21.9,-0.012775810124598492,-0.004258603374866164,0.0,0.90252,1.75599,9.60399
4217171675,21.9,-0.033021629447732716,0.0170518667919846,0.0,0.7749900000000001,1.72656,9.496080000000001
4222222180,21.9,-0.05539675045830002,0.008517206749732328,0.001064650843716541,0.73575,1.6480800000000002,9.47646
4227272685,21.9,-0.06710790973918197,0.015987215948268057,0.001064650843716541,0.6670800000000001,1.46169,9.751140000000001
4232323190,21.9,-0.06284930636431581,0.004258603374866164,0.003193952531149623,0.60822,1.4813100000000001,9.770760000000001
4237373695,21.9,-0.046879543708567686,-0.0,-0.002129301687433082,0.59841,1.5303600000000002,9.60399
4242424200,21.9,-0.03728023282259888,-0.012775810124598492,0.0,0.60822,1.6480800000000002,9.36855
4247474705,21.9,-0.046879543708567686,-0.002129301687433082,0.0,0.7651800000000001,1.79523,9.39798
4252525210,21.9,-0.05326744877086694,0.008517206749732328,0.003193952531149623,0.79461,1.68732,9.770760000000001
4257575715,21.9,-0.07883652231258387,0.01064650843716541,0.001064650843716541,0.73575,1.54017,9.66285
4262626220,21.9,-0.07883652231258387,0.02556907354171693,0.001064650843716541,0.6278400000000001,1.45188,9.60399
4267676725,21.9,-0.07243116395776468,0.006387905062299246,0.0,0.32373,1.54017,9.56475
4272727230,21.9,-0.06923721142661506,-0.021310470166850764,0.002129301687433082,0.5886,1.46169,9.46665
4277777735,21.9,-0.07243116395776468,-0.022375121010567305,0.002129301687433082,0.56898,1.6382700000000001,9.751140000000001
4282828240,21.9,-0.06710790973918197,-0.03834488366631542,0.0,0.86328,1.5990300000000002,9.82962
4287878745,21.9,-0.09374163412461543,-0.004258603374866164,0.0,0.87309,1.3635900000000003,9.81
4292929250,21.9,-0.0852244273748831,0.005323254218582705,0.003193952531149623,0.85347,1.34397,9.48627
4297979755,21.9,-0.07777187146886733,0.012775810124598492,0.001064650843716541,0.63765,1.3734000000000002,9.50589
4303030260,21.9,-0.07349581480148122,0.003193952531149623,0.003193952531149623,0.8142300000000001,1.45188,9.751140000000001
4308080765,21.9,-0.06817256058289851,0.00958185759344887,0.001064650843716541,0.6867000000000001,1.41264,10.212209999999999
4313131270,21.9,-0.05859070298944965,-0.013840460968315033,-0.001064650843716541,0.6278400000000001,1.46169,9.78057
4318181775,21.9,-0.05539675045830002,0.005323254218582705,0.003193952531149623,0.7848,1.5696,9.42741
4323232280,21.9,-0.06497860805174888,0.013840460968315033,-0.001064650843716541,0.59841,1.5990300000000002,9.496080000000001
4328282785,21.9,-0.0852244273748831,-0.004258603374866164,0.001064650843716541,0.5886,1.5303600000000002,9.59418
4333333290,21.9,-0.10759954838545042,0.00958185759344887,0.005323254218582705,0.7749900000000001,1.26549,9.908100000000001
4338383795,21.9,-0.09480628496833199,0.0,0.001064650843716541,0.60822,1.3047300000000002,10.03563
4343434300,21.9,-0.07456046564519776,-0.003193952531149623,0.001064650843716541,0.60822,1.3832099999999998,9.66285
4348484805,21.9,-0.05965535383316618,-0.004258603374866164,0.0,0.64746,1.43226,9.42741
4353535310,21.9,-0.06497860805174888,-0.015987215948268057,0.0,0.56898,1.6382700000000001,9.42741
4358585815,21.9,-0.06497860805174888,-0.02663372438543347,0.002129301687433082,0.9123300000000001,1.6775100000000003,9.59418
4363636320,21.9,-0.09906488834319814,0.01811651763570114,0.0,0.94176,1.40283,9.908100000000001
4368686825,21.9,-0.10012953918691468,0.01811651763570114,0.0,0.6867000000000001,1.41264,9.60399
4373737330,21.9,-0.0852244273748831,0.024504422698000388,0.001064650843716541,0.57879,1.46169,9.56475
4378787835,21.9,-0.07777187146886733,0.0,0.001064650843716541,0.48069000000000006,1.46169,9.496080000000001
4383838340,21.9,-0.07883652231258387,-0.001064650843716541,0.001064650843716541,0.5591700000000001,1.58922,9.66285
4388888845,21.9,-0.07883652231258387,-0.024504422698000388,0.001064650843716541,0.59841,1.68732,9.68247
4393939350,21.9,-0.10866419922916695,-0.01064650843716541,0.001064650843716541,0.8829,1.42245,9.65304
4398989855,21.9,-0.1278279144160647,-0.007452555906015787,0.004258603374866164,0.65727,1.29492,9.70209
4404040360,21.9,-0.12569861272863161,-0.022375121010567305,0.001064650843716541,0.7749900000000001,1.26549,9.58437
4409090865,21.9,-0.10759954838545042,0.002129301687433082,0.002129301687433082,0.9711900000000001,1.22625,9.53532
4414141370,21.9,-0.08309512568745003,0.01918116847941768,0.0,0.6670800000000001,1.46169,9.87867
4419191875,21.9,-0.06604325889546543,0.01064650843716541,0.0,0.70632,1.58922,9.633420000000001
4424242380,21.9,-0.09587093581204853,0.01918116847941768,0.002129301687433082,0.65727,1.4715,9.67266
4429292885,21.9,-0.12463396188491506,0.0,0.003193952531149623,0.51993,1.3635900000000003,9.79038
4434343390,21.9,-0.1288925652597812,-0.008517206749732328,0.002129301687433082,0.71613,1.2556800000000001,9.80019
4439393895,21.9,-0.12356931104119852,0.004258603374866164,0.004258603374866164,0.63765,1.24587,9.83943
4444444400,21.9,-0.10332349171806432,-0.00958185759344887,0.0,0.60822,1.3047300000000002,9.6138
4449494905,21.9,-0.09054768159346581,-0.03089232776029963,0.002129301687433082,0.72594,1.3341600000000002,9.44703
4454545410,21.9,-0.10225884087434776,-0.006387905062299246,0.002129301687433082,0.94176,1.42245,9.64323
4459595915,21.9,-0.10438814256178083,0.014905111812031574,0.001064650843716541,0.8240400000000001,1.3537800000000002,10.05525
4464646420,21.9,-0.10332349171806432,0.00958185759344887,0.004258603374866164,0.74556,1.41264,9.81
4469696925,21.9,-0.12037535851004891,0.03621558197888234,0.002129301687433082,0.6768900000000001,1.26549,9.67266
4474747430,21.9,-0.11931070766633237,-0.004258603374866164,0.001064650843716541,0.38259000000000004,1.22625,9.6138
4479797935,21.9,-0.11611675513518273,-0.012775810124598492,0.0,0.72594,1.26549,9.34893
4484848440,21.9,-0.11079350091660004,0.001064650843716541,0.001064650843716541,0.6670800000000001,1.2851100000000002,9.81
4489898945,21.9,-0.09587093581204853,-0.01918116847941768,0.0,0.65727,1.41264,9.82962
4494949450,21.9,-0.10225884087434776,0.0,0.001064650843716541,0.8142300000000001,1.41264,9.81
4499999955,21.9,-0.1171814059788993,-0.007452555906015787,0.003193952531149623,0.6867000000000001,1.3341600000000002,9.81
4505050460,21.9,-0.12463396188491506,0.002129301687433082,0.001064650843716541,0.7651800000000001,1.3047300000000002,9.4176
4510100965,21.9,-0.1171814059788993,-0.004258603374866164,0.005323254218582705,0.70632,1.3635900000000003,9.44703
4515151470,21.9,-0.1331511686346474,0.0,0.001064650843716541,0.7848,1.26549,9.69228
4520201975,21.9,-0.13849187614575004,-0.003193952531149623,0.0,0.6867000000000001,1.20663,9.96696
4525252480,21.9,-0.12676326357234816,-0.011711159280881954,0.003193952531149623,0.9123300000000001,1.19682,9.760950000000001
4530302985,21.9,-0.1097288500728835,0.020245819323134222,0.001064650843716541,0.8240400000000001,1.3243500000000001,9.65304
4535353490,21.9,-0.10119419003063122,0.003193952531149623,0.002129301687433082,0.6768900000000001,1.41264,9.42741
4540403995,21.9,-0.13102186694721432,0.012775810124598492,0.002129301687433082,0.79461,1.34397,9.39798
4545454500,21.9,-0.16084954386379738,0.031956978604016174,0.003193952531149623,0.65727,1.13796,9.99639
4550505005,21.9,-0.14381513036433274,0.008517206749732328,0.005323254218582705,0.51012,1.1772,10.01601
4555555510,21.9,-0.1352804703220805,0.0,0.003193952531149623,0.51012,1.16739,9.58437
4560606015,21.9,-0.12676326357234816,-0.02769837522915001,0.005323254218582705,0.51012,1.16739,9.46665
4565656520,21.9,-0.12463396188491506,-0.04260348704118158,0.002129301687433082,0.70632,1.26549,9.50589
4570707025,21.9,-0.11611675513518273,-0.02556907354171693,0.003193952531149623,1.00062,1.34397,9.7119
4575757530,21.9,-0.12463396188491506,0.001064650843716541,0.0,0.9810000000000001,1.40283,9.99639
4580808035,21.9,-0.14700908289548237,0.01064650843716541,0.003193952531149623,0.73575,1.2556800000000001,9.80019
4585858540,21.9,-0.1704488547497662,0.008517206749732328,0.004258603374866164,0.8338500000000001,0.9613800000000001,9.64323
4590909045,21.9,-0.18428931571808121,0.024504422698000388,0.004258603374866164,0.6768900000000001,0.85347,9.819809999999999
4595959550,21.9,-0.1352804703220805,0.003193952531149623,0.0,0.64746,1.01043,9.60399
4601010055,21.9,-0.09906488834319814,0.004258603374866164,0.0,0.69651,1.29492,9.70209
4606060560,21.9,-0.09480628496833199,-0.005323254218582705,0.002129301687433082,0.63765,1.3734000000000002,9.87867
4611111065,21.9,-0.13421581947836395,-0.0170518667919846,0.001064650843716541,0.6867000000000001,1.26549,9.751140000000001
4616161570,21.9,-0.1629788455512305,0.004258603374866164,0.004258603374866164,0.85347,1.05948,9.70209
4621212075,21.9,-0.1704488547497662,0.011711159280881954,0.003193952531149623,0.6670800000000001,1.00062,9.770760000000001
4626262580,21.9,-0.15339698795778162,0.012775810124598492,0.006387905062299246,0.70632,1.02024,9.78057
4631313085,21.9,-0.14062117783318315,0.003193952531149623,0.002129301687433082,0.5886,1.02024,9.87867
4636363590,21.9,-0.12676326357234816,-0.004258603374866164,0.001064650843716541,0.6670800000000001,1.13796,9.70209
4641414095,21.9,-0.1097288500728835,-0.02556907354171693,0.002129301687433082,0.60822,1.3047300000000002,9.55494
4646464600,21.9,-0.12676326357234816,-0.01918116847941768,0.003193952531149623,0.84366,1.26549,9.34893
4651515105,21.9,-0.17683675981206545,0.015987215948268057,0.005323254218582705,0.90252,0.9613800000000001,9.85905
4656565610,21.9,-0.1832246648743647,0.01918116847941768,0.005323254218582705,0.7848,0.94176,10.15335
4661616115,21.9,-0.150203035426632,0.012775810124598492,0.002129301687433082,0.65727,0.9613800000000001,9.91791
4666666620,21.9,-0.1171814059788993,0.0,0.0,0.52974,1.16739,9.36855
4671717125,21.9,-0.11292280260403312,-0.03089232776029963,0.003193952531149623,0.63765,1.3047300000000002,9.25083
4676767630,21.9,-0.14487978120804929,-0.02556907354171693,0.004258603374866164,0.90252,1.16739,9.54513
4681818135,21.9,-0.17896606149949854,0.001064650843716541,0.006387905062299246,0.8829,0.9908100000000001,10.01601
4686868640,21.9,-0.17364280728091586,-0.004258603374866164,0.006387905062299246,0.90252,0.9908100000000001,10.13373
4691919145,21.9,-0.17257815643719931,0.011711159280881954,0.004258603374866164,0.8142300000000001,0.9319500000000001,9.95715
4696969650,21.9,-0.1672549022186166,0.004258603374866164,0.003193952531149623,0.70632,0.8142300000000001,9.50589
4702020155,21.9,-0.1555262896452147,-0.001064650843716541,0.0,0.6768900000000001,0.95157,9.172350000000002
4707070660,21.9,-0.12676326357234816,0.00958185759344887,0.001064650843716541,0.8240400000000001,1.1477700000000002,9.43722
4712121165,21.9,-0.12995721610349775,0.024504422698000388,0.003193952531149623,0.73575,1.19682,10.045440000000001
4717171670,21.9,-0.1704488547497662,0.013840460968315033,0.003193952531149623,0.71613,1.04967,10.32993
4722222175,21.9,-0.19174187162409706,0.015987215948268057,0.002129301687433082,0.5886,0.7848,10.11411
4727272680,21.9,-0.17257815643719931,-0.003193952531149623,0.003193952531149623,0.45126,0.86328,9.4176
4732323185,21.9,-0.1416858286768997,-0.022375121010567305,0.003193952531149623,0.70632,0.9810000000000001,8.98596
4737373690,21.9,-0.15446163880149816,0.0,0.005323254218582705,0.6768900000000001,1.02024,9.623610000000001
4742424195,21.9,-0.16831955306233315,-0.014905111812031574,0.002129301687433082,0.7749900000000001,0.9123300000000001,10.27107
4747474700,21.9,-0.15872024217636432,-0.0170518667919846,0.001064650843716541,0.8240400000000001,0.9613800000000001,10.40841
4752525205,21.9,-0.15659094048893124,-0.014905111812031574,0.005323254218582705,0.80442,0.94176,9.81
4757575710,21.9,-0.1672549022186166,-0.00958185759344887,0.006387905062299246,0.8142300000000001,0.80442,9.28026
4762626215,21.9,-0.17470745812463237,-0.002129301687433082,0.002129301687433082,0.8142300000000001,0.85347,9.32931
4767676720,21.9,-0.16831955306233315,0.001064650843716541,0.005323254218582705,0.87309,0.7749900000000001,9.69228
4772727225,21.9,-0.14700908289548237,0.00958185759344887,0.002129301687433082,0.8829,0.9908100000000001,10.22202
4777777730,21.9,-0.13849187614575004,0.015987215948268057,0.001064650843716541,0.8240400000000001,1.06929,10.15335
4782828235,21.9,-0.15765559133264778,0.022375121010567305,0.003193952531149623,0.70632,0.9221400000000001,9.74133
4787878740,21.9,-0.18216001403064813,0.0170518667919846,0.003193952531149623,0.5493600000000001,0.85347,9.33912
4792929245,21.9,-0.17470745812463237,0.004258603374866164,0.003193952531149623,0.64746,0.8142300000000001,9.30969
4797979750,21.9,-0.17364280728091586,0.003193952531149623,0.007452555906015787,0.5886,0.8240400000000001,9.908100000000001
4803030255,21.9,-0.1832246648743647,-0.001064650843716541,0.003193952531149623,0.6670800000000001,0.74556,10.32993
4808080760,21.9,-0.16831955306233315,-0.028763026072866547,0.006387905062299246,0.64746,0.7651800000000001,9.92772
4813131265,21.9,-0.16084954386379738,-0.008517206749732328,0.002129301687433082,0.8142300000000001,0.86328,9.50589
4818181770,21.9,-0.13955652698946658,-0.01918116847941768,0.006387905062299246,0.74556,1.01043,9.46665
4823232275,21.9,-0.16617279808238014,-0.002129301687433082,0.002129301687433082,0.8142300000000001,0.94176,9.50589
4828282780,21.9,-0.19708257913519966,-0.003193952531149623,0.006387905062299246,0.8240400000000001,0.6278400000000001,10.06506
4833333285,21.9,-0.19067722078038052,-0.01064650843716541,0.001064650843716541,0.90252,0.6768900000000001,9.92772
4838383790,21.9,-0.16617279808238014,0.00958185759344887,0.004258603374866164,0.9123300000000001,0.74556,9.74133
4843434295,21.9,-0.14700908289548237,0.01918116847941768,0.002129301687433082,0.80442,0.9123300000000001,9.819809999999999
4848484800,21.9,-0.16510814723866357,0.006387905062299246,0.002129301687433082,0.5493600000000001,0.8240400000000001,9.67266
4853535305,21.9,-0.177901410655782,-0.01811651763570114,0.001064650843716541,0.8142300000000001,0.7651800000000001,9.47646
4858585810,21.9,-0.20134118251006583,0.004258603374866164,0.003193952531149623,0.7651800000000001,0.63765,9.81
4863636315,21.9,-0.18854791909294744,0.003193952531149623,0.004258603374866164,0.85347,0.59841,9.94734
4868686820,21.9,-0.17896606149949854,0.007452555906015787,0.005323254218582705,0.63765,0.63765,10.1043
4873737325,21.9,-0.16510814723866357,-0.01918116847941768,0.004258603374866164,0.6867000000000001,0.64746,9.83943
4878787830,21.9,-0.15446163880149816,-0.02982767691658309,0.002129301687433082,0.8240400000000001,0.70632,9.39798
4883838335,21.9,-0.15872024217636432,-0.011711159280881954,0.003193952531149623,0.9908100000000001,0.80442,9.45684
4888888840,21.9,-0.16617279808238014,0.021310470166850764,0.002129301687433082,0.9908100000000001,0.7848,9.86886
4893939345,21.9,-0.18748326824923087,0.03089232776029963,0.004258603374866164,0.7651800000000001,0.6768900000000001,10.13373
4898989850,21.9,-0.19600047499896323,0.03408628029144926,0.003193952531149623,0.74556,0.5493600000000001,10.045440000000001
4904040355,21.9,-0.18535396656179778,0.01918116847941768,0.001064650843716541,0.45126,0.5591700000000001,9.83943
4909090860,21.9,-0.16831955306233315,-0.001064650843716541,0.003193952531149623,0.48069000000000006,0.65727,9.38817
4914141365,21.9,-0.1629788455512305,-0.02663372438543347,0.007452555906015787,0.60822,0.6670800000000001,9.37836
4919191870,21.9,-0.17470745812463237,-0.012775810124598492,0.002129301687433082,0.75537,0.69651,9.79038
4924242375,21.9,-0.17257815643719931,-0.0170518667919846,0.004258603374866164,0.7749900000000001,0.64746,10.26126
4929292880,21.9,-0.18641861740551433,-0.024504422698000388,0.004258603374866164,0.8338500000000001,0.63765,10.025820000000001
4934343385,21.9,-0.19174187162409706,-0.02663372438543347,0.005323254218582705,0.8829,0.50031,9.7119
4939393890,21.9,-0.17364280728091586,-0.03089232776029963,0.005323254218582705,0.9810000000000001,0.5591700000000001,9.29988
4944444395,21.9,-0.17151350559348277,0.002129301687433082,0.003193952531149623,1.0791000000000002,0.59841,9.60399
4949494900,21.9,-0.15872024217636432,0.022375121010567305,0.003193952531149623,1.03005,0.71613,10.1043
4954545405,21.9,-0.17470745812463237,0.01811651763570114,0.003193952531149623,0.72594,0.6867000000000001,10.1043
4959595910,21.9,-0.19067722078038052,0.01811651763570114,0.004258603374866164,0.9319500000000001,0.5395500000000001,9.72171
4964646415,21.9,-0.20772908757236508,0.03728023282259888,0.003193952531149623,0.65727,0.45126,9.73152
4969696920,21.9,-0.19174187162409706,0.03834488366631542,0.005323254218582705,0.64746,0.40221,9.66285
4974747425,21.9,-0.1757721089683489,0.03834488366631542,0.002129301687433082,0.40221,0.52974,9.937529999999999
4979797930,21.9,-0.16831955306233315,0.002129301687433082,0.002129301687433082,0.30411,0.5493600000000001,9.79038
4984848435,21.9,-0.1800307123432151,-0.03089232776029963,0.006387905062299246,0.43164,0.47088,9.68247
4989898940,21.9,-0.1800307123432151,-0.03408628029144926,0.005323254218582705,0.73575,0.51012,9.937529999999999
4994949445,21.9,-0.17257815643719931,-0.044732788728614664,0.006387905062299246,0.6867000000000001,0.52974,10.08468
4999999950,21.9,-0.17470745812463237,-0.06284930636431581,0.006387905062299246,0.90252,0.48069000000000006,9.69228
5005050455,21.9,-0.19280652246781357,-0.054332099614583476,0.008517206749732328,1.06929,0.37278,9.52551
5010100960,21.9,-0.19921188082263275,-0.03834488366631542,0.005323254218582705,1.3734000000000002,0.33354000000000006,9.760950000000001
5015151465,21.9,-0.1757721089683489,0.011711159280881954,0.003193952531149623,1.39302,0.42183,10.045440000000001
5020201970,21.9,-0.15765559133264778,0.04366813788489812,0.003193952531149623,1.15758,0.5886,10.09449
5025252475,21.9,-0.15872024217636432,0.06391395720803235,0.003193952531149623,0.90252,0.6180300000000001,9.78057
5030302980,21.9,-0.19174187162409706,0.05220279792715039,0.002129301687433082,0.60822,0.47088,9.64323
5035353485,21.9,-0.21198769094723127,0.05220279792715039,0.002129301687433082,0.60822,0.25506,9.56475
5040403990,21.9,-0.20027653166634932,0.04260348704118158,0.004258603374866164,0.43164,0.28449,9.86886
5045454495,21.9,-0.17151350559348277,0.022375121010567305,0.002129301687433082,0.36297,0.42183,10.2024
5050505000,21.9,-0.1629788455512305,-0.013840460968315033,0.006387905062299246,0.43164,0.38259000000000004,10.025820000000001
5055555505,21.9,-0.177901410655782,-0.031956978604016174,0.001064650843716541,0.41202000000000005,0.38259000000000004,9.67266
5060606010,21.9,-0.17683675981206545,-0.049008845396000776,0.006387905062299246,0.56898,0.3924,9.45684
5065656515,21.9,-0.17896606149949854,-0.04260348704118158,0.006387905062299246,0.87309,0.35316,9.57456
5070707020,21.9,-0.18961256993666398,-0.031956978604016174,0.008517206749732328,0.9613800000000001,0.32373,10.22202
5075757525,21.9,-0.1832246648743647,-0.03621558197888234,0.00958185759344887,1.03005,0.18639,10.22202
5080808030,21.9,-0.1672549022186166,-0.008517206749732328,0.003193952531149623,1.0791000000000002,0.37278,9.888480000000001
5085858535,21.9,-0.14594443205176583,-0.012775810124598492,0.004258603374866164,0.95157,0.50031,9.29007
5090909040,21.9,-0.1629788455512305,0.0,0.002129301687433082,1.1477700000000002,0.47088,9.26064
5095959545,21.9,-0.19600047499896323,0.03089232776029963,0.005323254218582705,1.05948,0.33354000000000006,10.1043
5101010050,21.9,-0.20879373841608162,0.0404741853537485,0.005323254218582705,1.01043,0.16677000000000003,10.32993
5106060555,21.9,-0.19493582415524666,0.06604325889546543,0.002129301687433082,0.74556,0.20601000000000003,10.12392
5111111060,21.9,-0.1672549022186166,0.039409534510031964,0.002129301687433082,0.40221,0.31392000000000003,9.633420000000001
5116161565,21.9,-0.1704488547497662,0.002129301687433082,0.004258603374866164,0.36297,0.30411,9.27045
5121212070,21.9,-0.18961256993666398,-0.023439771854283843,0.003193952531149623,0.51993,0.17658,9.70209
5126262575,21.9,-0.18109536318693162,-0.03515093113516579,0.004258603374866164,0.79461,0.20601000000000003,10.09449
5131313080,21.9,-0.17364280728091586,-0.01918116847941768,0.007452555906015787,0.86328,0.27468000000000004,10.2024
5136363585,21.9,-0.1704488547497662,-0.015987215948268057,0.005323254218582705,0.8829,0.25506,10.006200000000002
5141414090,21.9,-0.18641861740551433,-0.011711159280881954,0.004258603374866164,0.7848,0.15696000000000002,9.751140000000001
5146464595,21.9,-0.18428931571808121,-0.01811651763570114,0.002129301687433082,0.95157,0.13734000000000002,9.42741
5151515100,21.9,-0.1672549022186166,0.012775810124598492,0.002129301687433082,1.02024,0.22563,9.6138
5156565605,21.9,-0.15659094048893124,0.02663372438543347,0.006387905062299246,0.84366,0.34335000000000004,10.01601
5161616110,21.9,-0.17470745812463237,0.02663372438543347,0.002129301687433082,0.79461,0.24525000000000002,10.182780000000001
5166666615,21.9,-0.20027653166634932,0.013840460968315033,0.005323254218582705,0.60822,0.10791,10.2024
5171717120,21.9,-0.19067722078038052,-0.015987215948268057,0.003193952531149623,0.75537,0.06867000000000001,9.633420000000001
5176767625,21.9,-0.17364280728091586,-0.003193952531149623,0.005323254218582705,0.63765,0.13734000000000002,9.60399
5181818130,21.9,-0.16831955306233315,-0.024504422698000388,0.004258603374866164,0.75537,0.10791,9.54513
5186868635,21.9,-0.18428931571808121,-0.01811651763570114,0.006387905062299246,0.90252,0.039240000000000004,9.85905
5191919140,21.9,-0.1800307123432151,-0.013840460968315033,0.004258603374866164,0.9711900000000001,0.06867000000000001,10.27107
5196969645,21.9,-0.16510814723866357,-0.01064650843716541,0.005323254218582705,1.04967,0.10791,10.23183
5202020150,21.9,-0.15659094048893124,0.01064650843716541,0.003193952531149623,0.9613800000000001,0.22563,9.79038
5207070655,21.9,-0.16617279808238014,0.022375121010567305,0.003193952531149623,0.8142300000000001,0.17658,9.358740000000001
5212121160,21.9,-0.1800307123432151,0.011711159280881954,0.001064650843716541,0.7848,0.08829,9.358740000000001
5217171665,21.9,-0.18216001403064813,0.024504422698000388,0.005323254218582705,0.80442,0.10791,10.01601
5222222170,21.9,-0.1704488547497662,0.004258603374866164,0.004258603374866164,0.7848,0.07848000000000001,10.437840000000001
5227272675,21.9,-0.17151350559348277,0.003193952531149623,0.003193952531149623,0.7651800000000001,0.0981,10.212209999999999
5232323180,21.9,-0.17257815643719931,-0.005323254218582705,0.004258603374866164,0.64746,0.019620000000000002,9.496080000000001
5237373685,21.9,-0.17364280728091586,0.0,0.001064650843716541,0.69651,0.039240000000000004,9.30969
5242424190,21.9,-0.17257815643719931,-0.020245819323134222,0.004258603374866164,0.6768900000000001,0.02943,9.633420000000001
5247474695,21.9,-0.18109536318693162,-0.023439771854283843,0.006387905062299246,1.00062,-0.0981,10.006200000000002
5252525200,21.9,-0.18428931571808121,-0.005323254218582705,0.003193952531149623,0.94176,-0.11772,10.46727
5257575705,21.9,-0.1555262896452147,0.0,0.003193952531149623,1.06929,-0.009810000000000001,10.025820000000001
5262626210,21.9,-0.13208651779093086,0.024504422698000388,0.002129301687433082,0.86328,0.22563,9.52551
5267676715,21.9,-0.14381513036433274,0.0170518667919846,0.001064650843716541,0.6278400000000001,0.20601000000000003,9.37836
5272727220,21.9,-0.17683675981206545,-0.001064650843716541,0.004258603374866164,0.7651800000000001,0.009810000000000001,9.53532
5277777725,21.9,-0.20134118251006583,-0.004258603374866164,0.003193952531149623,0.8240400000000001,-0.13734000000000002,10.15335
5282828230,21.9,-0.19067722078038052,-0.006387905062299246,0.002129301687433082,0.89271,-0.18639,10.47708
5287878735,21.9,-0.16404349639494703,0.008517206749732328,0.004258603374866164,0.8142300000000001,-0.009810000000000001,10.15335
5292929240,21.9,-0.15126768627034853,-0.005323254218582705,0.005323254218582705,0.72594,-0.019620000000000002,9.42741
5297979745,21.9,-0.16510814723866357,-0.01918116847941768,0.003193952531149623,0.70632,-0.0981,9.32931
5303030250,21.9,-0.1757721089683489,-0.02769837522915001,0.004258603374866164,0.9613800000000001,-0.17658,9.60399
5308080755,21.9,-0.16617279808238014,-0.00958185759344887,0.005323254218582705,1.1183400000000001,-0.12753,10.25145
5313131260,21.9,-0.16084954386379738,0.01064650843716541,0.003193952531149623,1.02024,-0.07848000000000001,10.46727
5318181765,21.9,-0.15765559133264778,0.022375121010567305,0.003193952531149623,0.9908100000000001,-0.13734000000000002,10.11411
5323232270,21.9,-0.14487978120804929,0.023439771854283843,0.0,0.7749900000000001,0.08829,9.60399
5328282775,21.9,-0.14381513036433274,0.008517206749732328,0.002129301687433082,0.60822,0.039240000000000004,9.182160000000001
5333333280,21.9,-0.1629788455512305,0.003193952531149623,0.004258603374866164,0.7848,-0.05886,9.48627
5338383785,21.9,-0.18535396656179778,0.00958185759344887,0.005323254218582705,0.73575,-0.25506,10.29069
5343434290,21.9,-0.177901410655782,-0.005323254218582705,0.004258603374866164,0.8240400000000001,-0.24525000000000002,10.712520000000001
5348484795,21.9,-0.16191419470751395,0.001064650843716541,0.003193952531149623,0.75537,-0.15696000000000002,10.212209999999999
5353535300,21.9,-0.1416858286768997,-0.02556907354171693,0.001064650843716541,0.6768900000000001,-0.18639,9.29988
5358585805,21.9,-0.14381513036433274,-0.028763026072866547,0.005323254218582705,0.89271,-0.10791,9.084060000000001
5363636310,21.9,-0.15978489302008084,-0.007452555906015787,0.004258603374866164,0.9319500000000001,-0.24525000000000002,9.6138
5368686815,21.9,-0.15872024217636432,0.002129301687433082,0.004258603374866164,1.16739,-0.25506,10.37898
5373737320,21.9,-0.14913838458291545,0.028763026072866547,0.004258603374866164,0.9319500000000001,-0.07848000000000001,10.810620000000002
5378787825,21.9,-0.13849187614575004,-0.005323254218582705,0.002129301687433082,0.72594,-0.13734000000000002,10.045440000000001
5383838330,21.9,-0.15446163880149816,-0.006387905062299246,0.001064650843716541,0.80442,-0.13734000000000002,9.191970000000001
5388888835,21.9,-0.14700908289548237,-0.012775810124598492,0.001064650843716541,0.80442,-0.13734000000000002,9.29988
5393939340,21.9,-0.1480737337391989,-0.011711159280881954,0.002129301687433082,1.01043,-0.1962,9.48627
5398989845,21.9,-0.16510814723866357,0.03408628029144926,0.004258603374866164,1.02024,-0.22563,10.42803
5404040350,21.9,-0.15872024217636432,0.03089232776029963,0.003193952531149623,0.7848,-0.28449,10.70271
5409090855,21.9,-0.15765559133264778,0.012775810124598492,0.003193952531149623,0.6867000000000001,-0.25506,9.92772
5414141360,21.9,-0.1555262896452147,-0.005323254218582705,0.001064650843716541,0.51012,-0.28449,9.32931
5419191865,21.9,-0.13634512116579703,-0.02769837522915001,0.004258603374866164,0.6768900000000001,-0.24525000000000002,9.191970000000001
5424242370,21.9,-0.1374272253020335,-0.039409534510031964,0.004258603374866164,0.95157,-0.32373,9.760950000000001
5429292875,21.9,-0.13955652698946658,-0.028763026072866547,0.004258603374866164,1.1281500000000002,-0.18639,10.555560000000002
5434343380,21.9,-0.13208651779093086,-0.012775810124598492,0.001064650843716541,1.1281500000000002,-0.16677000000000003,10.418220000000002
5439393885,21.9,-0.13849187614575004,0.003193952531149623,0.001064650843716541,1.0987200000000001,-0.1962,9.70209
5444444390,21.9,-0.15126768627034853,0.02769837522915001,0.001064650843716541,0.9711900000000001,-0.20601000000000003,9.26064
5449494895,21.9,-0.15872024217636432,0.028763026072866547,0.003193952531149623,0.8829,-0.47088,9.43722
5454545400,21.9,-0.15872024217636432,0.02663372438543347,0.002129301687433082,0.79461,-0.5395500000000001,10.09449
5459595905,21.9,-0.12995721610349775,0.02769837522915001,0.004258603374866164,0.79461,-0.20601000000000003,10.673280000000002
5464646410,21.9,-0.10225884087434776,-0.014905111812031574,0.003193952531149623,0.59841,-0.17658,10.19259
5469696915,21.9,-0.13421581947836395,-0.03089232776029963,0.003193952531149623,0.6768900000000001,-0.20601000000000003,9.29988
5474747420,21.9,-0.1480737337391989,-0.05220279792715039,0.004258603374866164,0.9123300000000001,-0.41202000000000005,9.39798
5479797925,21.9,-0.1480737337391989,-0.046879543708567686,0.005323254218582705,1.22625,-0.42183,9.69228
5484848430,21.9,-0.13421581947836395,-0.005323254218582705,0.003193952531149623,1.3832099999999998,-0.32373,10.54575
5489898935,21.9,-0.10759954838545042,0.0170518667919846,0.002129301687433082,1.2556800000000001,-0.1962,10.38879
5494949440,21.9,-0.12676326357234816,0.06178465552059926,0.002129301687433082,1.03986,-0.1962,9.46665
5499999945,21.9,-0.1331511686346474,0.07883652231258387,0.002129301687433082,0.73575,-0.30411,9.358740000000001
5505050450,21.9,-0.14700908289548237,0.07670722062515077,0.003193952531149623,0.34335000000000004,-0.52974,9.623610000000001
5510100955,21.9,-0.15446163880149816,0.03728023282259888,0.003193952531149623,0.2943,-0.5591700000000001,10.29069
5515151460,21.9,-0.12037535851004891,-0.020245819323134222,0.005323254218582705,0.16677000000000003,-0.2943,10.575180000000001
5520201965,21.9,-0.11079350091660004,-0.08309512568745003,0.003193952531149623,0.33354000000000006,-0.27468000000000004,9.72171
5525252470,21.9,-0.12037535851004891,-0.10866419922916695,0.006387905062299246,0.85347,-0.33354000000000006,9.28026
5530302975,21.9,-0.12037535851004891,-0.10866419922916695,0.006387905062299246,1.24587,-0.31392000000000003,9.56475
5535353480,21.9,-0.13955652698946658,-0.08096582400001695,0.006387905062299246,1.69713,-0.51993,10.11411
5540403985,21.9,-0.13955652698946658,-0.02982767691658309,0.003193952531149623,1.8933300000000002,-0.51993,10.44765
5545454490,21.9,-0.12569861272863161,0.04366813788489812,0.003193952531149623,1.79523,-0.41202000000000005,10.12392
5550504995,21.9,-0.11292280260403312,0.07670722062515077,0.0,1.2753,-0.41202000000000005,9.53532
5555555500,21.9,-0.12037535851004891,0.11398745344774965,0.0,1.02024,-0.51993,9.32931
5560606005,21.9,-0.12250466019748199,0.12356931104119852,0.0,0.51012,-0.63765,9.86886
5565656510,21.9,-0.10545279340549739,0.09587093581204853,0.0,0.22563,-0.44145,10.50651
5570707015,21.9,-0.09267698328089889,0.060720004676882725,0.002129301687433082,0.0,-0.24525000000000002,10.27107
5575757520,21.9,-0.09906488834319814,-0.002129301687433082,0.001064650843716541,-0.0981,-0.28449,9.623610000000001
5580808025,21.9,-0.12569861272863161,-0.04581489286485115,0.006387905062299246,0.16677000000000003,-0.44145,9.45684
5585858530,21.9,-0.1288925652597812,-0.0756251164889143,0.005323254218582705,0.41202000000000005,-0.57879,9.751140000000001
5590909035,21.9,-0.12250466019748199,-0.10225884087434776,0.004258603374866164,0.74556,-0.5395500000000001,10.23183
5595959540,21.9,-0.10438814256178083,-0.10225884087434776,0.004258603374866164,1.1772,-0.49050000000000005,10.06506
5601010045,21.9,-0.10225884087434776,-0.07243116395776468,0.004258603374866164,1.39302,-0.47088,9.67266
5606060550,21.9,-0.10225884087434776,-0.03089232776029963,0.002129301687433082,1.6186500000000001,-0.49050000000000005,9.751140000000001
5611111055,21.9,-0.10653489754173388,0.021310470166850764,0.002129301687433082,1.4813100000000001,-0.49050000000000005,9.91791
5616161560,21.9,-0.10012953918691468,0.05539675045830002,0.0,1.2851100000000002,-0.48069000000000006,9.83943
5621212065,21.9,-0.10332349171806432,0.07777187146886733,-0.001064650843716541,0.9613800000000001,-0.50031,9.908100000000001
5626262570,21.9,-0.10545279340549739,0.06923721142661506,0.002129301687433082,0.6867000000000001,-0.5493600000000001,9.83943
5631313075,21.9,-0.09906488834319814,0.05220279792715039,0.0,0.49050000000000005,-0.48069000000000006,9.888480000000001
5636363580,21.9,-0.08628907821859966,0.01811651763570114,0.0,0.35316,-0.34335000000000004,10.08468
5641414085,21.9,-0.08628907821859966,-0.0170518667919846,0.002129301687433082,0.42183,-0.34335000000000004,9.82962
5646464590,21.9,-0.11079350091660004,-0.03728023282259888,0.006387905062299246,0.56898,-0.50031,9.66285
5651515095,21.9,-0.12144000935376545,-0.039409534510031964,0.002129301687433082,0.8142300000000001,-0.70632,9.86886
5656565600,21.9,-0.11398745344774965,-0.024504422698000388,0.004258603374866164,0.9319500000000001,-0.71613,10.06506
5661616105,21.9,-0.09267698328089889,-0.015987215948268057,0.003193952531149623,0.9711900000000001,-0.6278400000000001,10.13373
5666666610,21.9,-0.0756251164889143,0.0,0.003193952531149623,0.95157,-0.46107000000000004,9.908100000000001
5671717115,21.9,-0.07670722062515077,-0.001064650843716541,0.001064650843716541,0.8829,-0.50031,9.54513
5676767620,21.9,-0.08948303074974927,0.004258603374866164,0.002129301687433082,0.9221400000000001,-0.5493600000000001,9.57456
5681818125,21.9,-0.08948303074974927,0.02769837522915001,0.0,0.89271,-0.5886,10.11411
5686868630,21.9,-0.07990117315630041,0.024504422698000388,0.002129301687433082,0.73575,-0.48069000000000006,10.34955
5691919135,21.9,-0.08203047484373349,0.015987215948268057,0.002129301687433082,0.59841,-0.43164,10.09449
5696969640,21.9,-0.09161233243718235,-0.014905111812031574,0.001064650843716541,0.5591700000000001,-0.5591700000000001,9.5157
5702020145,21.9,-0.09480628496833199,-0.02982767691658309,0.002129301687433082,0.72594,-0.6670800000000001,9.37836
5707070650,21.9,-0.08948303074974927,-0.03408628029144926,0.003193952531149623,0.8829,-0.71613,9.937529999999999
5712121155,21.9,-0.07990117315630041,-0.033021629447732716,0.0,1.05948,-0.5886,10.398600000000002
5717171660,21.9,-0.06817256058289851,-0.03621558197888234,0.003193952531149623,1.10853,-0.47088,10.11411
5722222165,21.9,-0.07670722062515077,-0.03408628029144926,0.003193952531149623,1.22625,-0.52974,9.39798
5727272670,21.9,-0.08628907821859966,-0.015987215948268057,0.001064650843716541,1.2753,-0.6670800000000001,9.496080000000001
5732323175,21.9,-0.08628907821859966,-0.002129301687433082,-0.001064650843716541,1.3734000000000002,-0.72594,9.78057
5737373680,21.9,-0.06710790973918197,0.02769837522915001,0.001064650843716541,1.3734000000000002,-0.51993,10.38879
5742424185,21.9,-0.05220279792715039,0.03621558197888234,0.001064650843716541,1.05948,-0.37278,10.36917
5747474690,21.9,-0.06923721142661506,0.04794419455228423,0.0,0.90252,-0.5591700000000001,9.47646
5752525195,21.9,-0.09587093581204853,0.06391395720803235,-0.001064650843716541,0.7651800000000001,-0.79461,9.54513
5757575700,21.9,-0.09161233243718235,0.06497860805174888,0.0,0.51012,-0.86328,10.1043
5762626205,21.9,-0.07030186227033158,0.039409534510031964,0.003193952531149623,0.34335000000000004,-0.8142300000000001,10.398600000000002
5767676710,21.9,-0.04794419455228423,0.03515093113516579,0.0,0.21582,-0.5886,10.01601
5772727215,21.9,-0.03728023282259888,-0.006387905062299246,0.002129301687433082,0.24525000000000002,-0.50031,9.73152
5777777720,21.9,-0.054332099614583476,-0.02556907354171693,0.003193952531149623,0.40221,-0.60822,9.47646
5782828225,21.9,-0.06710790973918197,-0.024504422698000388,0.003193952531149623,0.47088,-0.6867000000000001,10.01601
5787878730,21.9,-0.054332099614583476,-0.05646140130201656,0.003193952531149623,0.6768900000000001,-0.5591700000000001,10.29069
5792929235,21.9,-0.05859070298944965,-0.06497860805174888,0.002129301687433082,0.8142300000000001,-0.5395500000000001,10.01601
5797979740,21.9,-0.05859070298944965,-0.07777187146886733,0.004258603374866164,1.06929,-0.60822,9.58437
5803030245,21.9,-0.06497860805174888,-0.06284930636431581,0.005323254218582705,1.34397,-0.71613,9.60399
5808080750,21.9,-0.06178465552059926,-0.031956978604016174,0.0,1.5499800000000001,-0.7848,9.87867
5813131255,21.9,-0.044732788728614664,0.004258603374866164,0.001064650843716541,1.5499800000000001,-0.63765,10.22202
5818181760,21.9,-0.04260348704118158,0.02982767691658309,0.0,1.3734000000000002,-0.60822,9.87867
5823232265,21.9,-0.05007349623971732,0.05113814708343386,0.0,1.1281500000000002,-0.64746,9.59418
5828282770,21.9,-0.049008845396000776,0.04794419455228423,0.0,0.87309,-0.72594,9.89829
5833333275,21.9,-0.04260348704118158,0.046879543708567686,-0.001064650843716541,0.86328,-0.65727,9.89829
5838383780,21.9,-0.03408628029144926,0.05007349623971732,-0.001064650843716541,0.60822,-0.5493600000000001,10.17297
5843434285,21.9,-0.02769837522915001,0.03408628029144926,0.0,0.5395500000000001,-0.45126,9.819809999999999
5848484790,21.9,-0.04366813788489812,0.03089232776029963,0.0,0.35316,-0.60822,9.66285
5853535295,21.9,-0.06497860805174888,0.005323254218582705,0.0,0.41202000000000005,-0.80442,9.79038
5858585800,21.9,-0.06178465552059926,-0.001064650843716541,0.001064650843716541,0.3924,-0.89271,10.01601
5863636305,21.9,-0.04260348704118158,-0.014905111812031574,0.002129301687433082,0.5493600000000001,-0.7651800000000001,10.17297
5868686810,21.9,-0.022375121010567305,-0.011711159280881954,0.0,0.50031,-0.56898,9.86886
5873737315,21.9,-0.020245819323134222,-0.04366813788489812,0.002129301687433082,0.5886,-0.6180300000000001,9.5157
5878787820,21.9,-0.02982767691658309,-0.03515093113516579,0.002129301687433082,0.8142300000000001,-0.59841,9.770760000000001
5883838325,21.9,-0.03834488366631542,-0.07670722062515077,0.003193952531149623,0.8142300000000001,-0.6867000000000001,10.13373
5888888830,21.9,-0.0404741853537485,-0.07777187146886733,0.004258603374866164,1.39302,-0.63765,10.17297
5893939335,21.9,-0.03834488366631542,-0.08948303074974927,0.004258603374866164,1.3832099999999998,-0.75537,10.074869999999999
5898989840,21.9,-0.03408628029144926,-0.06604325889546543,0.001064650843716541,1.95219,-0.71613,9.50589
5904040345,21.9,-0.028763026072866547,-0.002129301687433082,0.0,1.8933300000000002,-0.79461,9.82962
5909090850,21.9,-0.022375121010567305,0.046879543708567686,-0.004258603374866164,1.90314,-0.80442,9.84924
5914141355,21.9,-0.02556907354171693,0.14594443205176583,-0.003193952531149623,1.50093,-0.8142300000000001,10.05525
5919191860,21.9,-0.007452555906015787,0.177901410655782,-0.008517206749732328,0.79461,-0.75537,10.143540000000002
5924242365,21.9,-0.013840460968315033,0.20666443672864854,-0.004258603374866164,0.08829,-0.72594,9.92772
5929292870,21.9,-0.013840460968315033,0.16191419470751395,-0.004258603374866164,-0.52974,-0.73575,9.937529999999999
5934343375,21.9,-0.01064650843716541,0.09480628496833199,-0.001064650843716541,-0.8240400000000001,-0.6180300000000001,9.79038
5939393880,21.9,-0.006387905062299246,-0.00958185759344887,0.002129301687433082,-0.87309,-0.59841,9.84924
5944444385,21.9,0.0,-0.12250466019748199,0.003193952531149623,-0.5493600000000001,-0.52974,9.72171
5949494890,21.9,-0.013840460968315033,-0.19921188082263275,0.005323254218582705,0.0981,-0.49050000000000005,9.908100000000001
5954545395,21.9,-0.015987215948268057,-0.26738444140553125,0.004258603374866164,0.8338500000000001,-0.57879,10.03563
5959595900,21.9,-0.03089232776029963,-0.2524618763009797,0.008517206749732328,1.9129500000000002,-0.87309,9.80019
5964646405,21.9,-0.03834488366631542,-0.1416858286768997,0.004258603374866164,2.6683200000000005,-0.9123300000000001,9.908100000000001
5969696910,21.9,-0.011711159280881954,-0.01064650843716541,-0.001064650843716541,2.86452,-0.8829,9.770760000000001
5974747415,21.9,0.003193952531149623,0.12356931104119852,-0.001064650843716541,2.36421,-0.6867000000000001,9.58437
5979797920,21.9,0.00958185759344887,0.20347048419749894,-0.004258603374866164,1.5990300000000002,-0.63765,9.623610000000001
5984848425,21.9,0.008517206749732328,0.22263419938439669,-0.00958185759344887,0.65727,-0.60822,10.08468
5989898930,21.9,0.012775810124598492,0.18535396656179778,-0.006387905062299246,-0.009810000000000001,-0.50031,10.09449
5994949435,21.9,0.007452555906015787,0.11931070766633237,-0.003193952531149623,-0.46107000000000004,-0.46107000000000004,10.025820000000001
5999999940,21.9,-0.014905111812031574,0.023439771854283843,-0.001064650843716541,-0.45126,-0.5886,9.80019
6005050445,21.9,-0.02769837522915001,-0.044732788728614664,0.001064650843716541,-0.35316,-0.8142300000000001,9.70209
6010100950,21.9,-0.02982767691658309,-0.10545279340549739,0.003193952531149623,0.02943,-0.8829,9.84924
6015151455,21.9,-0.01918116847941768,-0.12995721610349775,0.003193952531149623,0.49050000000000005,-0.9613800000000001,9.99639
6020201960,21.9,0.005323254218582705,-0.13102186694721432,0.002129301687433082,0.9908100000000001,-0.86328,9.98658
6025252465,21.9,0.01918116847941768,-0.10119419003063122,0.002129301687433082,1.2851100000000002,-0.69651,9.99639
6030302970,21.9,0.02663372438543347,-0.08309512568745003,0.002129301687433082,1.54017,-0.64746,9.95715
6035353475,21.9,0.014905111812031574,-0.039409534510031964,0.001064650843716541,1.72656,-0.63765,9.751140000000001
6040403980,21.9,0.006387905062299246,-0.001064650843716541,-0.001064650843716541,1.74618,-0.72594,9.82962
6045454485,21.9,0.007452555906015787,0.046879543708567686,-0.003193952531149623,1.65789,-0.6867000000000001,9.96696
6050504990,21.9,0.021310470166850764,0.10332349171806432,-0.004258603374866164,1.3243500000000001,-0.6278400000000001,9.87867
6055555495,21.9,0.028763026072866547,0.11824605682261582,-0.005323254218582705,0.7651800000000001,-0.59841,9.85905
6060606000,21.9,0.0170518667919846,0.12037535851004891,-0.004258603374866164,0.3924,-0.5395500000000001,9.81
6065656505,21.9,0.01064650843716541,0.07670722062515077,-0.003193952531149623,0.0,-0.69651,9.86886
6070707010,21.9,0.006387905062299246,0.0170518667919846,0.0,-0.019620000000000002,-0.69651,9.87867
6075757515,21.9,0.011711159280881954,-0.02663372438543347,0.003193952531149623,0.019620000000000002,-0.69651,10.074869999999999
6080808020,21.9,0.023439771854283843,-0.08309512568745003,0.002129301687433082,0.34335000000000004,-0.57879,9.79038
6085858525,21.9,0.0170518667919846,-0.07990117315630041,0.0,0.70632,-0.6278400000000001,9.80019
6090909030,21.9,0.01811651763570114,-0.08628907821859966,0.0,0.9711900000000001,-0.70632,9.760950000000001
6095959535,21.9,0.005323254218582705,-0.05007349623971732,0.0,1.29492,-0.84366,9.81
6101010040,21.9,0.012775810124598492,-0.020245819323134222,0.0,1.29492,-0.84366,10.17297
6106060545,21.9,0.02556907354171693,0.0,0.001064650843716541,1.2753,-0.7651800000000001,10.1043
6111111050,21.9,0.04153883619746504,0.024504422698000388,0.0,1.1281500000000002,-0.65727,9.98658
6116161555,21.9,0.04366813788489812,0.01811651763570114,-0.001064650843716541,1.00062,-0.59841,9.82962
6121212060,21.9,0.03621558197888234,0.0404741853537485,-0.002129301687433082,0.9810000000000001,-0.65727,9.770760000000001
6126262565,21.9,0.033021629447732716,0.049008845396000776,-0.001064650843716541,0.75537,-0.7749900000000001,9.92772
6131313070,21.9,0.024504422698000388,0.060720004676882725,-0.003193952531149623,0.63765,-0.8338500000000001,10.1043
6136363575,21.9,0.02982767691658309,0.039409534510031964,-0.002129301687433082,0.27468000000000004,-0.80442,10.19259
6141414080,21.9,0.0404741853537485,-0.001064650843716541,-0.001064650843716541,0.34335000000000004,-0.73575,9.86886
6146464585,21.9,0.05220279792715039,-0.0404741853537485,0.0,0.37278,-0.75537,9.819809999999999
